Subject,ExperimentName,RandomSeed,SessionDate,SessionStartDateTimeUtc,SessionTime,Block,Instruction,Face,Faces,ShowPhoto.RESP,ShowPhoto.RT,ShowPhoto.RTTime,StimulusList,StimulusList.Cycle,StimulusList.Sample61,Skin_test,-546662972,03-10-2017,10/03/2017 13:58,14:58:52,1,,,,,,,,,61,Skin_test,-546662972,03-10-2017,10/03/2017 13:58,14:58:52,1,,,,,,,,,61,Skin_test,-546662972,03-10-2017,10/03/2017 13:58,14:58:52,1,,,,,,,,,61,Skin_test,-546662972,03-10-2017,10/03/2017 13:58,14:58:52,1,,,,,,,,,61,Skin_test,-546662972,03-10-2017,10/03/2017 13:58,14:58:52,1,,,,,,,,,61,Skin_test,-546662972,03-10-2017,10/03/2017 13:58,14:58:52,2,halsa.jpg,451.jpg,180,3,1682,368942,1,1,161,Skin_test,-546662972,03-10-2017,10/03/2017 13:58,14:58:52,2,halsa.jpg,292.jpg,166,2,1333,370492,2,1,261,Skin_test,-546662972,03-10-2017,10/03/2017 13:58,14:58:52,2,halsa.jpg,144.jpg,39,4,1147,371871,3,1,361,Skin_test,-546662972,03-10-2017,10/03/2017 13:58,14:58:52,2,halsa.jpg,418.jpg,176,3,2342,374415,4,1,461,Skin_test,-546662972,03-10-2017,10/03/2017 13:58,14:58:52,2,halsa.jpg,132.jpg,29,6,1639,376260,5,1,561,Skin_test,-546662972,03-10-2017,10/03/2017 13:58,14:58:52,2,halsa.jpg,153.jpg,46,6,1290,377759,6,1,661,Skin_test,-546662972,03-10-2017,10/03/2017 13:58,14:58:52,2,halsa.jpg,195.jpg,84,6,1387,379355,7,1,761,Skin_test,-546662972,03-10-2017,10/03/2017 13:58,14:58:52,2,halsa.jpg,184.jpg,73,3,1573,381139,8,1,861,Skin_test,-546662972,03-10-2017,10/03/2017 13:58,14:58:52,2,halsa.jpg,175.jpg,64,6,1017,382365,9,1,961,Skin_test,-546662972,03-10-2017,10/03/2017 13:58,14:58:52,2,halsa.jpg,106.jpg,6,4,1691,384271,10,1,1061,Skin_test,-546662972,03-10-2017,10/03/2017 13:58,14:58:52,2,halsa.jpg,162.jpg,53,5,2011,386490,11,1,1161,Skin_test,-546662972,03-10-2017,10/03/2017 13:58,14:58:52,2,halsa.jpg,279.jpg,155,5,1034,387727,12,1,1261,Skin_test,-546662972,03-10-2017,10/03/2017 13:58,14:58:52,2,halsa.jpg,154.jpg,47,7,1523,389465,13,1,1361,Skin_test,-546662972,03-10-2017,10/03/2017 13:58,14:58:52,2,halsa.jpg,281.jpg,157,7,835,390509,14,1,1461,Skin_test,-546662972,03-10-2017,10/03/2017 13:58,14:58:52,2,halsa.jpg,239.jpg,121,7,668,391391,15,1,1561,Skin_test,-546662972,03-10-2017,10/03/2017 13:58,14:58:52,2,halsa.jpg,306.jpg,174,7,758,392364,16,1,1661,Skin_test,-546662972,03-10-2017,10/03/2017 13:58,14:58:52,2,halsa.jpg,263.jpg,141,7,687,393275,17,1,1761,Skin_test,-546662972,03-10-2017,10/03/2017 13:58,14:58:52,2,halsa.jpg,111.jpg,11,7,711,394198,18,1,1861,Skin_test,-546662972,03-10-2017,10/03/2017 13:58,14:58:52,2,halsa.jpg,215.jpg,102,7,636,395039,19,1,1961,Skin_test,-546662972,03-10-2017,10/03/2017 13:58,14:58:52,2,halsa.jpg,146.jpg,41,7,479,395748,20,1,2061,Skin_test,-546662972,03-10-2017,10/03/2017 13:58,14:58:52,2,halsa.jpg,230.jpg,115,7,1802,397754,21,1,2161,Skin_test,-546662972,03-10-2017,10/03/2017 13:58,14:58:52,2,halsa.jpg,294.jpg,168,7,359,398326,22,1,2261,Skin_test,-546662972,03-10-2017,10/03/2017 13:58,14:58:52,2,halsa.jpg,102.jpg,2,7,1435,399968,23,1,2361,Skin_test,-546662972,03-10-2017,10/03/2017 13:58,14:58:52,2,halsa.jpg,202.jpg,89,7,921,401102,24,1,2461,Skin_test,-546662972,03-10-2017,10/03/2017 13:58,14:58:52,2,halsa.jpg,267.jpg,145,7,741,402055,25,1,2561,Skin_test,-546662972,03-10-2017,10/03/2017 13:58,14:58:52,2,halsa.jpg,274.jpg,151,7,745,403008,26,1,2661,Skin_test,-546662972,03-10-2017,10/03/2017 13:58,14:58:52,2,halsa.jpg,302.jpg,172,7,647,403859,27,1,2761,Skin_test,-546662972,03-10-2017,10/03/2017 13:58,14:58:52,2,halsa.jpg,241.jpg,123,6,741,404802,28,1,2861,Skin_test,-546662972,03-10-2017,10/03/2017 13:58,14:58:52,2,halsa.jpg,198.jpg,87,5,859,405886,29,1,2961,Skin_test,-546662972,03-10-2017,10/03/2017 13:58,14:58:52,2,halsa.jpg,180.jpg,69,7,484,406577,30,1,3061,Skin_test,-546662972,03-10-2017,10/03/2017 13:58,14:58:52,2,halsa.jpg,245.jpg,127,6,1235,408027,31,1,3161,Skin_test,-546662972,03-10-2017,10/03/2017 13:58,14:58:52,2,halsa.jpg,289.jpg,163,7,1242,409483,32,1,3261,Skin_test,-546662972,03-10-2017,10/03/2017 13:58,14:58:52,2,halsa.jpg,130.jpg,27,7,1061,410751,33,1,3361,Skin_test,-546662972,03-10-2017,10/03/2017 13:58,14:58:52,2,halsa.jpg,417.jpg,175,7,4398,415353,34,1,3461,Skin_test,-546662972,03-10-2017,10/03/2017 13:58,14:58:52,2,halsa.jpg,121.jpg,18,6,586,416154,35,1,3561,Skin_test,-546662972,03-10-2017,10/03/2017 13:58,14:58:52,2,halsa.jpg,298.jpg,170,6,709,417076,36,1,3661,Skin_test,-546662972,03-10-2017,10/03/2017 13:58,14:58:52,2,halsa.jpg,291.jpg,165,6,765,418048,37,1,3761,Skin_test,-546662972,03-10-2017,10/03/2017 13:58,14:58:52,2,halsa.jpg,218.jpg,105,7,837,419086,38,1,3861,Skin_test,-546662972,03-10-2017,10/03/2017 13:58,14:58:52,2,halsa.jpg,240.jpg,122,5,1642,420940,39,1,3961,Skin_test,-546662972,03-10-2017,10/03/2017 13:58,14:58:52,2,halsa.jpg,425.jpg,177,6,2196,423342,40,1,4061,Skin_test,-546662972,03-10-2017,10/03/2017 13:58,14:58:52,2,halsa.jpg,254.jpg,134,6,1359,424903,41,1,4161,Skin_test,-546662972,03-10-2017,10/03/2017 13:58,14:58:52,2,halsa.jpg,228.jpg,113,6,847,425956,42,1,4261,Skin_test,-546662972,03-10-2017,10/03/2017 13:58,14:58:52,2,halsa.jpg,288.jpg,162,6,714,426889,43,1,4361,Skin_test,-546662972,03-10-2017,10/03/2017 13:58,14:58:52,2,halsa.jpg,182.jpg,71,4,1464,428555,44,1,4461,Skin_test,-546662972,03-10-2017,10/03/2017 13:58,14:58:52,2,halsa.jpg,244.jpg,126,4,995,429751,45,1,4561,Skin_test,-546662972,03-10-2017,10/03/2017 13:58,14:58:52,2,halsa.jpg,196.jpg,85,5,1194,431149,46,1,4661,Skin_test,-546662972,03-10-2017,10/03/2017 13:58,14:58:52,2,halsa.jpg,167.jpg,58,7,1438,432792,47,1,4761,Skin_test,-546662972,03-10-2017,10/03/2017 13:58,14:58:52,2,halsa.jpg,293.jpg,167,7,944,433946,48,1,4861,Skin_test,-546662972,03-10-2017,10/03/2017 13:58,14:58:52,2,halsa.jpg,266.jpg,144,7,930,435081,49,1,4961,Skin_test,-546662972,03-10-2017,10/03/2017 13:58,14:58:52,2,halsa.jpg,161.jpg,52,7,1825,437109,50,1,5061,Skin_test,-546662972,03-10-2017,10/03/2017 13:58,14:58:52,2,halsa.jpg,163.jpg,54,7,716,438031,51,1,5161,Skin_test,-546662972,03-10-2017,10/03/2017 13:58,14:58:52,2,halsa.jpg,104.jpg,4,7,508,438756,52,1,5261,Skin_test,-546662972,03-10-2017,10/03/2017 13:58,14:58:52,2,halsa.jpg,188.jpg,77,7,715,439679,53,1,5361,Skin_test,-546662972,03-10-2017,10/03/2017 13:58,14:58:52,2,halsa.jpg,145.jpg,40,7,1238,441118,54,1,5461,Skin_test,-546662972,03-10-2017,10/03/2017 13:58,14:58:52,2,halsa.jpg,126.jpg,23,7,155,441483,55,1,5561,Skin_test,-546662972,03-10-2017,10/03/2017 13:58,14:58:52,2,halsa.jpg,270.jpg,148,7,142,441837,56,1,5661,Skin_test,-546662972,03-10-2017,10/03/2017 13:58,14:58:52,2,halsa.jpg,243.jpg,125,5,2114,444158,57,1,5761,Skin_test,-546662972,03-10-2017,10/03/2017 13:58,14:58:52,2,halsa.jpg,137.jpg,34,7,873,445232,58,1,5861,Skin_test,-546662972,03-10-2017,10/03/2017 13:58,14:58:52,2,halsa.jpg,265.jpg,143,7,55,445496,59,1,5961,Skin_test,-546662972,03-10-2017,10/03/2017 13:58,14:58:52,2,halsa.jpg,248.jpg,130,7,204,445912,60,1,6061,Skin_test,-546662972,03-10-2017,10/03/2017 13:58,14:58:52,2,halsa.jpg,176.jpg,65,7,11,446135,61,1,6161,Skin_test,-546662972,03-10-2017,10/03/2017 13:58,14:58:52,2,halsa.jpg,204.jpg,91,7,172,446529,62,1,6261,Skin_test,-546662972,03-10-2017,10/03/2017 13:58,14:58:52,2,halsa.jpg,140.jpg,37,7,206,446946,63,1,6361,Skin_test,-546662972,03-10-2017,10/03/2017 13:58,14:58:52,2,halsa.jpg,433.jpg,179,7,187,447360,64,1,6461,Skin_test,-546662972,03-10-2017,10/03/2017 13:58,14:58:52,2,halsa.jpg,208.jpg,95,7,32,447605,65,1,6561,Skin_test,-546662972,03-10-2017,10/03/2017 13:58,14:58:52,2,halsa.jpg,101.jpg,1,7,22,447828,66,1,6661,Skin_test,-546662972,03-10-2017,10/03/2017 13:58,14:58:52,2,halsa.jpg,255.jpg,135,7,22,448061,67,1,6761,Skin_test,-546662972,03-10-2017,10/03/2017 13:58,14:58:52,2,halsa.jpg,232.jpg,116,7,21,448293,68,1,6861,Skin_test,-546662972,03-10-2017,10/03/2017 13:58,14:58:52,2,halsa.jpg,259.jpg,139,4,897,449402,69,1,6961,Skin_test,-546662972,03-10-2017,10/03/2017 13:58,14:58:52,2,halsa.jpg,191.jpg,80,4,1268,450872,70,1,7061,Skin_test,-546662972,03-10-2017,10/03/2017 13:58,14:58:52,2,halsa.jpg,280.jpg,156,1,1498,452584,71,1,7161,Skin_test,-546662972,03-10-2017,10/03/2017 13:58,14:58:52,2,halsa.jpg,573.jpg,181,6,823,453608,72,1,7261,Skin_test,-546662972,03-10-2017,10/03/2017 13:58,14:58:52,2,halsa.jpg,297.jpg,169,7,1625,455442,73,1,7361,Skin_test,-546662972,03-10-2017,10/03/2017 13:58,14:58:52,2,halsa.jpg,125.jpg,22,7,432,456081,74,1,7461,Skin_test,-546662972,03-10-2017,10/03/2017 13:58,14:58:52,2,halsa.jpg,286.jpg,160,7,52,456334,75,1,7561,Skin_test,-546662972,03-10-2017,10/03/2017 13:58,14:58:52,2,halsa.jpg,159.jpg,50,7,130,456678,76,1,7661,Skin_test,-546662972,03-10-2017,10/03/2017 13:58,14:58:52,2,halsa.jpg,577.jpg,182,7,91,456972,77,1,7761,Skin_test,-546662972,03-10-2017,10/03/2017 13:58,14:58:52,2,halsa.jpg,179.jpg,68,7,96,457277,78,1,7861,Skin_test,-546662972,03-10-2017,10/03/2017 13:58,14:58:52,2,halsa.jpg,212.jpg,99,7,637,458118,79,1,7961,Skin_test,-546662972,03-10-2017,10/03/2017 13:58,14:58:52,2,halsa.jpg,206.jpg,93,7,183,458513,80,1,8061,Skin_test,-546662972,03-10-2017,10/03/2017 13:58,14:58:52,2,halsa.jpg,203.jpg,90,7,35,458781,81,1,8161,Skin_test,-546662972,03-10-2017,10/03/2017 13:58,14:58:52,2,halsa.jpg,193.jpg,82,7,29,459025,82,1,8261,Skin_test,-546662972,03-10-2017,10/03/2017 13:58,14:58:52,2,halsa.jpg,257.jpg,137,7,160,459389,83,1,8361,Skin_test,-546662972,03-10-2017,10/03/2017 13:58,14:58:52,2,halsa.jpg,235.jpg,118,7,213,459825,84,1,8461,Skin_test,-546662972,03-10-2017,10/03/2017 13:58,14:58:52,2,halsa.jpg,139.jpg,36,7,84,460129,85,1,8561,Skin_test,-546662972,03-10-2017,10/03/2017 13:58,14:58:52,2,halsa.jpg,183.jpg,72,7,9,460354,86,1,8661,Skin_test,-546662972,03-10-2017,10/03/2017 13:58,14:58:52,2,halsa.jpg,135.jpg,32,7,85,460646,87,1,8761,Skin_test,-546662972,03-10-2017,10/03/2017 13:58,14:58:52,2,halsa.jpg,249.jpg,131,7,28,460889,88,1,8861,Skin_test,-546662972,03-10-2017,10/03/2017 13:58,14:58:52,2,halsa.jpg,222.jpg,109,6,392,461486,89,1,8961,Skin_test,-546662972,03-10-2017,10/03/2017 13:58,14:58:52,2,halsa.jpg,131.jpg,28,7,674,462368,90,1,9061,Skin_test,-546662972,03-10-2017,10/03/2017 13:58,14:58:52,2,halsa.jpg,120.jpg,17,7,157,462733,91,1,9161,Skin_test,-546662972,03-10-2017,10/03/2017 13:58,14:58:52,2,halsa.jpg,177.jpg,66,7,363,463322,92,1,9261,Skin_test,-546662972,03-10-2017,10/03/2017 13:58,14:58:52,2,halsa.jpg,152.jpg,45,7,30,463555,93,1,9361,Skin_test,-546662972,03-10-2017,10/03/2017 13:58,14:58:52,2,halsa.jpg,233.jpg,117,7,175,463950,94,1,9461,Skin_test,-546662972,03-10-2017,10/03/2017 13:58,14:58:52,2,halsa.jpg,214.jpg,101,7,16,464174,95,1,9561,Skin_test,-546662972,03-10-2017,10/03/2017 13:58,14:58:52,2,halsa.jpg,107.jpg,7,7,188,464579,96,1,9661,Skin_test,-546662972,03-10-2017,10/03/2017 13:58,14:58:52,2,halsa.jpg,147.jpg,42,7,9,464800,97,1,9761,Skin_test,-546662972,03-10-2017,10/03/2017 13:58,14:58:52,2,halsa.jpg,185.jpg,74,4,900,465907,98,1,9861,Skin_test,-546662972,03-10-2017,10/03/2017 13:58,14:58:52,2,halsa.jpg,238.jpg,120,7,1668,467791,99,1,9961,Skin_test,-546662972,03-10-2017,10/03/2017 13:58,14:58:52,2,halsa.jpg,252.jpg,132,7,998,469003,100,1,10061,Skin_test,-546662972,03-10-2017,10/03/2017 13:58,14:58:52,2,halsa.jpg,186.jpg,75,7,863,470067,101,1,10161,Skin_test,-546662972,03-10-2017,10/03/2017 13:58,14:58:52,2,halsa.jpg,213.jpg,100,7,649,470918,102,1,10261,Skin_test,-546662972,03-10-2017,10/03/2017 13:58,14:58:52,2,halsa.jpg,192.jpg,81,7,954,472073,103,1,10361,Skin_test,-546662972,03-10-2017,10/03/2017 13:58,14:58:52,2,halsa.jpg,269.jpg,147,7,996,473280,104,1,10461,Skin_test,-546662972,03-10-2017,10/03/2017 13:58,14:58:52,2,halsa.jpg,103.jpg,3,4,1337,474820,105,1,10561,Skin_test,-546662972,03-10-2017,10/03/2017 13:58,14:58:52,2,halsa.jpg,256.jpg,136,3,1085,476117,106,1,10661,Skin_test,-546662972,03-10-2017,10/03/2017 13:58,14:58:52,2,halsa.jpg,221.jpg,108,1,1347,477678,107,1,10761,Skin_test,-546662972,03-10-2017,10/03/2017 13:58,14:58:52,2,halsa.jpg,268.jpg,146,2,1232,479111,108,1,10861,Skin_test,-546662972,03-10-2017,10/03/2017 13:58,14:58:52,2,halsa.jpg,272.jpg,150,2,797,480125,109,1,10961,Skin_test,-546662972,03-10-2017,10/03/2017 13:58,14:58:52,2,halsa.jpg,207.jpg,94,3,741,481068,110,1,11061,Skin_test,-546662972,03-10-2017,10/03/2017 13:58,14:58:52,2,halsa.jpg,119.jpg,16,3,745,482021,111,1,11161,Skin_test,-546662972,03-10-2017,10/03/2017 13:58,14:58:52,2,halsa.jpg,282.jpg,158,2,1248,483490,112,1,11261,Skin_test,-546662972,03-10-2017,10/03/2017 13:58,14:58:52,2,halsa.jpg,173.jpg,62,3,721,484412,113,1,11361,Skin_test,-546662972,03-10-2017,10/03/2017 13:58,14:58:52,2,halsa.jpg,136.jpg,33,7,1653,486276,114,1,11461,Skin_test,-546662972,03-10-2017,10/03/2017 13:58,14:58:52,2,halsa.jpg,190.jpg,79,7,984,487472,115,1,11561,Skin_test,-546662972,03-10-2017,10/03/2017 13:58,14:58:52,2,halsa.jpg,271.jpg,149,7,1493,489180,116,1,11661,Skin_test,-546662972,03-10-2017,10/03/2017 13:58,14:58:52,2,halsa.jpg,115.jpg,13,7,400,489786,117,1,11761,Skin_test,-546662972,03-10-2017,10/03/2017 13:58,14:58:52,2,halsa.jpg,216.jpg,103,7,1551,491553,118,1,11861,Skin_test,-546662972,03-10-2017,10/03/2017 13:58,14:58:52,2,halsa.jpg,165.jpg,56,7,121,491888,119,1,11961,Skin_test,-546662972,03-10-2017,10/03/2017 13:58,14:58:52,2,halsa.jpg,217.jpg,104,7,42,492142,120,1,12061,Skin_test,-546662972,03-10-2017,10/03/2017 13:58,14:58:52,2,halsa.jpg,209.jpg,96,7,1515,493865,121,1,12161,Skin_test,-546662972,03-10-2017,10/03/2017 13:58,14:58:52,2,halsa.jpg,187.jpg,76,7,146,494211,122,1,12261,Skin_test,-546662972,03-10-2017,10/03/2017 13:58,14:58:52,2,halsa.jpg,189.jpg,78,7,302,494717,123,1,12361,Skin_test,-546662972,03-10-2017,10/03/2017 13:58,14:58:52,2,halsa.jpg,210.jpg,97,7,1206,496137,124,1,12461,Skin_test,-546662972,03-10-2017,10/03/2017 13:58,14:58:52,2,halsa.jpg,181.jpg,70,7,915,497261,125,1,12561,Skin_test,-546662972,03-10-2017,10/03/2017 13:58,14:58:52,2,halsa.jpg,156.jpg,49,7,215,497677,126,1,12661,Skin_test,-546662972,03-10-2017,10/03/2017 13:58,14:58:52,2,halsa.jpg,431.jpg,178,7,93,497971,127,1,12761,Skin_test,-546662972,03-10-2017,10/03/2017 13:58,14:58:52,2,halsa.jpg,151.jpg,44,7,351,498529,128,1,12861,Skin_test,-546662972,03-10-2017,10/03/2017 13:58,14:58:52,2,halsa.jpg,220.jpg,107,7,109,498853,129,1,12961,Skin_test,-546662972,03-10-2017,10/03/2017 13:58,14:58:52,2,halsa.jpg,278.jpg,154,7,86,499163,130,1,13061,Skin_test,-546662972,03-10-2017,10/03/2017 13:58,14:58:52,2,halsa.jpg,194.jpg,83,7,70,499447,131,1,13161,Skin_test,-546662972,03-10-2017,10/03/2017 13:58,14:58:52,2,halsa.jpg,155.jpg,48,7,161,499821,132,1,13261,Skin_test,-546662972,03-10-2017,10/03/2017 13:58,14:58:52,2,halsa.jpg,247.jpg,129,6,464,500490,133,1,13361,Skin_test,-546662972,03-10-2017,10/03/2017 13:58,14:58:52,2,halsa.jpg,224.jpg,111,6,54,500763,134,1,13461,Skin_test,-546662972,03-10-2017,10/03/2017 13:58,14:58:52,2,halsa.jpg,290.jpg,164,6,156,501148,135,1,13561,Skin_test,-546662972,03-10-2017,10/03/2017 13:58,14:58:52,2,halsa.jpg,178.jpg,67,6,78,501453,136,1,13661,Skin_test,-546662972,03-10-2017,10/03/2017 13:58,14:58:52,2,halsa.jpg,258.jpg,138,6,99,501757,137,1,13761,Skin_test,-546662972,03-10-2017,10/03/2017 13:58,14:58:52,2,halsa.jpg,109.jpg,9,6,143,502101,138,1,13861,Skin_test,-546662972,03-10-2017,10/03/2017 13:58,14:58:52,2,halsa.jpg,242.jpg,124,6,158,502466,139,1,13961,Skin_test,-546662972,03-10-2017,10/03/2017 13:58,14:58:52,2,halsa.jpg,164.jpg,55,4,817,503491,140,1,14061,Skin_test,-546662972,03-10-2017,10/03/2017 13:58,14:58:52,2,halsa.jpg,236.jpg,119,4,699,504422,141,1,14161,Skin_test,-546662972,03-10-2017,10/03/2017 13:58,14:58:52,2,halsa.jpg,116.jpg,14,4,1360,505982,142,1,14261,Skin_test,-546662972,03-10-2017,10/03/2017 13:58,14:58:52,2,halsa.jpg,253.jpg,133,5,353,506541,143,1,14361,Skin_test,-546662972,03-10-2017,10/03/2017 13:58,14:58:52,2,halsa.jpg,275.jpg,152,5,273,507027,144,1,14461,Skin_test,-546662972,03-10-2017,10/03/2017 13:58,14:58:52,2,halsa.jpg,168.jpg,59,4,621,507858,145,1,14561,Skin_test,-546662972,03-10-2017,10/03/2017 13:58,14:58:52,2,halsa.jpg,105.jpg,5,6,479,508548,146,1,14661,Skin_test,-546662972,03-10-2017,10/03/2017 13:58,14:58:52,2,halsa.jpg,129.jpg,26,5,2608,511360,147,1,14761,Skin_test,-546662972,03-10-2017,10/03/2017 13:58,14:58:52,2,halsa.jpg,201.jpg,88,6,1587,513153,148,1,14861,Skin_test,-546662972,03-10-2017,10/03/2017 13:58,14:58:52,2,halsa.jpg,276.jpg,153,5,1435,514816,149,1,14961,Skin_test,-546662972,03-10-2017,10/03/2017 13:58,14:58:52,2,halsa.jpg,287.jpg,161,5,354,515384,150,1,15061,Skin_test,-546662972,03-10-2017,10/03/2017 13:58,14:58:52,2,halsa.jpg,211.jpg,98,1,883,516479,151,1,15161,Skin_test,-546662972,03-10-2017,10/03/2017 13:58,14:58:52,2,halsa.jpg,123.jpg,20,5,980,517675,152,1,15261,Skin_test,-546662972,03-10-2017,10/03/2017 13:58,14:58:52,2,halsa.jpg,226.jpg,112,7,1196,519073,153,1,15361,Skin_test,-546662972,03-10-2017,10/03/2017 13:58,14:58:52,2,halsa.jpg,229.jpg,114,5,1373,520649,154,1,15461,Skin_test,-546662972,03-10-2017,10/03/2017 13:58,14:58:52,2,halsa.jpg,264.jpg,142,5,804,521662,155,1,15561,Skin_test,-546662972,03-10-2017,10/03/2017 13:58,14:58:52,2,halsa.jpg,171.jpg,60,1,1177,523051,156,1,15661,Skin_test,-546662972,03-10-2017,10/03/2017 13:58,14:58:52,2,halsa.jpg,108.jpg,8,5,1082,524338,157,1,15761,Skin_test,-546662972,03-10-2017,10/03/2017 13:58,14:58:52,2,halsa.jpg,122.jpg,19,5,220,524775,158,1,15861,Skin_test,-546662972,03-10-2017,10/03/2017 13:58,14:58:52,2,halsa.jpg,160.jpg,51,5,80,525068,159,1,15961,Skin_test,-546662972,03-10-2017,10/03/2017 13:58,14:58:52,2,halsa.jpg,117.jpg,15,5,304,525575,160,1,16061,Skin_test,-546662972,03-10-2017,10/03/2017 13:58,14:58:52,2,halsa.jpg,285.jpg,159,5,335,526122,161,1,16161,Skin_test,-546662972,03-10-2017,10/03/2017 13:58,14:58:52,2,halsa.jpg,127.jpg,24,5,105,526458,162,1,16261,Skin_test,-546662972,03-10-2017,10/03/2017 13:58,14:58:52,2,halsa.jpg,219.jpg,106,5,126,526812,163,1,16361,Skin_test,-546662972,03-10-2017,10/03/2017 13:58,14:58:52,2,halsa.jpg,260.jpg,140,5,239,527258,164,1,16461,Skin_test,-546662972,03-10-2017,10/03/2017 13:58,14:58:52,2,halsa.jpg,197.jpg,86,5,610,528079,165,1,16561,Skin_test,-546662972,03-10-2017,10/03/2017 13:58,14:58:52,2,halsa.jpg,112.jpg,12,5,1111,529396,166,1,16661,Skin_test,-546662972,03-10-2017,10/03/2017 13:58,14:58:52,2,halsa.jpg,143.jpg,38,1,1392,530992,167,1,16761,Skin_test,-546662972,03-10-2017,10/03/2017 13:58,14:58:52,2,halsa.jpg,166.jpg,57,1,1059,532258,168,1,16861,Skin_test,-546662972,03-10-2017,10/03/2017 13:58,14:58:52,2,halsa.jpg,134.jpg,31,1,900,533364,169,1,16961,Skin_test,-546662972,03-10-2017,10/03/2017 13:58,14:58:52,2,halsa.jpg,128.jpg,25,5,1264,534844,170,1,17061,Skin_test,-546662972,03-10-2017,10/03/2017 13:58,14:58:52,2,halsa.jpg,305.jpg,173,6,2316,537378,171,1,17161,Skin_test,-546662972,03-10-2017,10/03/2017 13:58,14:58:52,2,halsa.jpg,124.jpg,21,6,220,537813,172,1,17261,Skin_test,-546662972,03-10-2017,10/03/2017 13:58,14:58:52,2,halsa.jpg,133.jpg,30,6,71,538097,173,1,17361,Skin_test,-546662972,03-10-2017,10/03/2017 13:58,14:58:52,2,halsa.jpg,138.jpg,35,6,10,538319,174,1,17461,Skin_test,-546662972,03-10-2017,10/03/2017 13:58,14:58:52,2,halsa.jpg,172.jpg,61,6,38,538564,175,1,17561,Skin_test,-546662972,03-10-2017,10/03/2017 13:58,14:58:52,2,halsa.jpg,301.jpg,171,6,177,538969,176,1,17661,Skin_test,-546662972,03-10-2017,10/03/2017 13:58,14:58:52,2,halsa.jpg,149.jpg,43,6,200,539375,177,1,17761,Skin_test,-546662972,03-10-2017,10/03/2017 13:58,14:58:52,2,halsa.jpg,223.jpg,110,6,168,539743,178,1,17861,Skin_test,-546662972,03-10-2017,10/03/2017 13:58,14:58:52,2,halsa.jpg,246.jpg,128,6,170,540128,179,1,17961,Skin_test,-546662972,03-10-2017,10/03/2017 13:58,14:58:52,2,halsa.jpg,205.jpg,92,6,142,540483,180,1,18061,Skin_test,-546662972,03-10-2017,10/03/2017 13:58,14:58:52,2,halsa.jpg,174.jpg,63,6,161,540868,181,1,18161,Skin_test,-546662972,03-10-2017,10/03/2017 13:58,14:58:52,2,halsa.jpg,110.jpg,10,6,153,541243,182,1,18261,Skin_test,-546662972,03-10-2017,10/03/2017 13:58,14:58:52,2,trotthet.jpg,451.jpg,180,1,2046,573060,1,2,18361,Skin_test,-546662972,03-10-2017,10/03/2017 13:58,14:58:52,2,trotthet.jpg,258.jpg,138,2,1724,574986,2,2,18461,Skin_test,-546662972,03-10-2017,10/03/2017 13:58,14:58:52,2,trotthet.jpg,293.jpg,167,3,1303,576496,3,2,18561,Skin_test,-546662972,03-10-2017,10/03/2017 13:58,14:58:52,2,trotthet.jpg,165.jpg,56,4,2103,578828,4,2,18661,Skin_test,-546662972,03-10-2017,10/03/2017 13:58,14:58:52,2,trotthet.jpg,417.jpg,175,3,1161,580201,5,2,18761,Skin_test,-546662972,03-10-2017,10/03/2017 13:58,14:58:52,2,trotthet.jpg,212.jpg,99,4,477,580882,6,2,18861,Skin_test,-546662972,03-10-2017,10/03/2017 13:58,14:58:52,2,trotthet.jpg,233.jpg,117,2,1052,582140,7,2,18961,Skin_test,-546662972,03-10-2017,10/03/2017 13:58,14:58:52,2,trotthet.jpg,268.jpg,146,4,2922,585292,8,2,19061,Skin_test,-546662972,03-10-2017,10/03/2017 13:58,14:58:52,2,trotthet.jpg,230.jpg,115,1,1160,586661,9,2,19161,Skin_test,-546662972,03-10-2017,10/03/2017 13:58,14:58:52,2,trotthet.jpg,111.jpg,11,5,809,587675,10,2,19261,Skin_test,-546662972,03-10-2017,10/03/2017 13:58,14:58:52,2,trotthet.jpg,265.jpg,143,2,391,588273,11,2,19361,Skin_test,-546662972,03-10-2017,10/03/2017 13:58,14:58:52,2,trotthet.jpg,124.jpg,21,5,130,588628,12,2,19461,Skin_test,-546662972,03-10-2017,10/03/2017 13:58,14:58:52,2,trotthet.jpg,259.jpg,139,5,416,589247,13,2,19561,Skin_test,-546662972,03-10-2017,10/03/2017 13:58,14:58:52,2,trotthet.jpg,210.jpg,97,3,1224,590671,14,2,19661,Skin_test,-546662972,03-10-2017,10/03/2017 13:58,14:58:52,2,trotthet.jpg,201.jpg,88,3,116,590995,15,2,19761,Skin_test,-546662972,03-10-2017,10/03/2017 13:58,14:58:52,2,trotthet.jpg,159.jpg,50,3,63,591259,16,2,19861,Skin_test,-546662972,03-10-2017,10/03/2017 13:58,14:58:52,2,trotthet.jpg,185.jpg,74,3,81,591543,17,2,19961,Skin_test,-546662972,03-10-2017,10/03/2017 13:58,14:58:52,2,trotthet.jpg,168.jpg,59,3,305,592050,18,2,20061,Skin_test,-546662972,03-10-2017,10/03/2017 13:58,14:58:52,2,trotthet.jpg,190.jpg,79,5,1759,594037,19,2,20161,Skin_test,-546662972,03-10-2017,10/03/2017 13:58,14:58:52,2,trotthet.jpg,263.jpg,141,5,2633,596876,20,2,20261,Skin_test,-546662972,03-10-2017,10/03/2017 13:58,14:58:52,2,trotthet.jpg,216.jpg,103,5,2467,599574,21,2,20361,Skin_test,-546662972,03-10-2017,10/03/2017 13:58,14:58:52,2,trotthet.jpg,297.jpg,169,5,222,600010,22,2,20461,Skin_test,-546662972,03-10-2017,10/03/2017 13:58,14:58:52,2,trotthet.jpg,282.jpg,158,5,36,600257,23,2,20561,Skin_test,-546662972,03-10-2017,10/03/2017 13:58,14:58:52,2,trotthet.jpg,228.jpg,113,5,1418,601889,24,2,20661,Skin_test,-546662972,03-10-2017,10/03/2017 13:58,14:58:52,2,trotthet.jpg,224.jpg,111,5,70,602173,25,2,20761,Skin_test,-546662972,03-10-2017,10/03/2017 13:58,14:58:52,2,trotthet.jpg,139.jpg,36,5,31,602417,26,2,20861,Skin_test,-546662972,03-10-2017,10/03/2017 13:58,14:58:52,2,trotthet.jpg,172.jpg,61,5,31,602650,27,2,20961,Skin_test,-546662972,03-10-2017,10/03/2017 13:58,14:58:52,2,trotthet.jpg,244.jpg,126,4,2190,605042,28,2,21061,Skin_test,-546662972,03-10-2017,10/03/2017 13:58,14:58:52,2,trotthet.jpg,153.jpg,46,4,87,605337,29,2,21161,Skin_test,-546662972,03-10-2017,10/03/2017 13:58,14:58:52,2,trotthet.jpg,280.jpg,156,4,213,605763,30,2,21261,Skin_test,-546662972,03-10-2017,10/03/2017 13:58,14:58:52,2,trotthet.jpg,206.jpg,93,4,212,606178,31,2,21361,Skin_test,-546662972,03-10-2017,10/03/2017 13:58,14:58:52,2,trotthet.jpg,116.jpg,14,4,253,606635,32,2,21461,Skin_test,-546662972,03-10-2017,10/03/2017 13:58,14:58:52,2,trotthet.jpg,191.jpg,80,4,195,607060,33,2,21561,Skin_test,-546662972,03-10-2017,10/03/2017 13:58,14:58:52,2,trotthet.jpg,573.jpg,181,4,151,607416,34,2,21661,Skin_test,-546662972,03-10-2017,10/03/2017 13:58,14:58:52,2,trotthet.jpg,178.jpg,67,4,160,607791,35,2,21761,Skin_test,-546662972,03-10-2017,10/03/2017 13:58,14:58:52,2,trotthet.jpg,211.jpg,98,4,92,608106,36,2,21861,Skin_test,-546662972,03-10-2017,10/03/2017 13:58,14:58:52,2,trotthet.jpg,305.jpg,173,4,126,608440,37,2,21961,Skin_test,-546662972,03-10-2017,10/03/2017 13:58,14:58:52,2,trotthet.jpg,418.jpg,176,4,118,608765,38,2,22061,Skin_test,-546662972,03-10-2017,10/03/2017 13:58,14:58:52,2,trotthet.jpg,115.jpg,13,4,119,609099,39,2,22161,Skin_test,-546662972,03-10-2017,10/03/2017 13:58,14:58:52,2,trotthet.jpg,425.jpg,177,4,101,609414,40,2,22261,Skin_test,-546662972,03-10-2017,10/03/2017 13:58,14:58:52,2,trotthet.jpg,166.jpg,57,4,92,609738,41,2,22361,Skin_test,-546662972,03-10-2017,10/03/2017 13:58,14:58:52,2,trotthet.jpg,248.jpg,130,4,126,610072,42,2,22461,Skin_test,-546662972,03-10-2017,10/03/2017 13:58,14:58:52,2,trotthet.jpg,264.jpg,142,4,112,610391,43,2,22561,Skin_test,-546662972,03-10-2017,10/03/2017 13:58,14:58:52,2,trotthet.jpg,132.jpg,29,4,101,610696,44,2,22661,Skin_test,-546662972,03-10-2017,10/03/2017 13:58,14:58:52,2,trotthet.jpg,180.jpg,69,4,97,611009,45,2,22761,Skin_test,-546662972,03-10-2017,10/03/2017 13:58,14:58:52,2,trotthet.jpg,247.jpg,129,4,102,611313,46,2,22861,Skin_test,-546662972,03-10-2017,10/03/2017 13:58,14:58:52,2,trotthet.jpg,184.jpg,73,4,90,611618,47,2,22961,Skin_test,-546662972,03-10-2017,10/03/2017 13:58,14:58:52,2,trotthet.jpg,257.jpg,137,4,58,611902,48,2,23061,Skin_test,-546662972,03-10-2017,10/03/2017 13:58,14:58:52,2,trotthet.jpg,104.jpg,4,4,49,612176,49,2,23161,Skin_test,-546662972,03-10-2017,10/03/2017 13:58,14:58:52,2,trotthet.jpg,270.jpg,148,4,113,612490,50,2,23261,Skin_test,-546662972,03-10-2017,10/03/2017 13:58,14:58:52,2,trotthet.jpg,126.jpg,23,4,152,612845,51,2,23361,Skin_test,-546662972,03-10-2017,10/03/2017 13:58,14:58:52,2,trotthet.jpg,276.jpg,153,5,1489,614549,52,2,23461,Skin_test,-546662972,03-10-2017,10/03/2017 13:58,14:58:52,2,trotthet.jpg,222.jpg,109,7,2651,617409,53,2,23561,Skin_test,-546662972,03-10-2017,10/03/2017 13:58,14:58:52,2,trotthet.jpg,229.jpg,114,7,769,618391,54,2,23661,Skin_test,-546662972,03-10-2017,10/03/2017 13:58,14:58:52,2,trotthet.jpg,186.jpg,75,7,679,619284,55,2,23761,Skin_test,-546662972,03-10-2017,10/03/2017 13:58,14:58:52,2,trotthet.jpg,246.jpg,128,7,871,620358,56,2,23861,Skin_test,-546662972,03-10-2017,10/03/2017 13:58,14:58:52,2,trotthet.jpg,267.jpg,145,7,1060,621630,57,2,23961,Skin_test,-546662972,03-10-2017,10/03/2017 13:58,14:58:52,2,trotthet.jpg,245.jpg,127,7,890,622725,58,2,24061,Skin_test,-546662972,03-10-2017,10/03/2017 13:58,14:58:52,2,trotthet.jpg,195.jpg,84,7,572,623506,59,2,24161,Skin_test,-546662972,03-10-2017,10/03/2017 13:58,14:58:52,2,trotthet.jpg,135.jpg,32,7,1888,625605,60,2,24261,Skin_test,-546662972,03-10-2017,10/03/2017 13:58,14:58:52,2,trotthet.jpg,117.jpg,15,7,1534,627349,61,2,24361,Skin_test,-546662972,03-10-2017,10/03/2017 13:58,14:58:52,2,trotthet.jpg,156.jpg,49,7,1038,628618,62,2,24461,Skin_test,-546662972,03-10-2017,10/03/2017 13:58,14:58:52,2,trotthet.jpg,291.jpg,165,4,1360,630189,63,2,24561,Skin_test,-546662972,03-10-2017,10/03/2017 13:58,14:58:52,2,trotthet.jpg,577.jpg,182,5,1036,631430,64,2,24661,Skin_test,-546662972,03-10-2017,10/03/2017 13:58,14:58:52,2,trotthet.jpg,203.jpg,90,5,1876,633519,65,2,24761,Skin_test,-546662972,03-10-2017,10/03/2017 13:58,14:58:52,2,trotthet.jpg,121.jpg,18,4,1791,635516,66,2,24861,Skin_test,-546662972,03-10-2017,10/03/2017 13:58,14:58:52,2,trotthet.jpg,240.jpg,122,5,2065,637788,67,2,24961,Skin_test,-546662972,03-10-2017,10/03/2017 13:58,14:58:52,2,trotthet.jpg,214.jpg,101,4,1144,639148,68,2,25061,Skin_test,-546662972,03-10-2017,10/03/2017 13:58,14:58:52,2,trotthet.jpg,266.jpg,144,3,697,640050,69,2,25161,Skin_test,-546662972,03-10-2017,10/03/2017 13:58,14:58:52,2,trotthet.jpg,110.jpg,10,5,431,640683,70,2,25261,Skin_test,-546662972,03-10-2017,10/03/2017 13:58,14:58:52,2,trotthet.jpg,106.jpg,6,5,1005,641890,71,2,25361,Skin_test,-546662972,03-10-2017,10/03/2017 13:58,14:58:52,2,trotthet.jpg,290.jpg,164,5,1726,643827,72,2,25461,Skin_test,-546662972,03-10-2017,10/03/2017 13:58,14:58:52,2,trotthet.jpg,238.jpg,120,5,130,644162,73,2,25561,Skin_test,-546662972,03-10-2017,10/03/2017 13:58,14:58:52,2,trotthet.jpg,167.jpg,58,5,162,644527,74,2,25661,Skin_test,-546662972,03-10-2017,10/03/2017 13:58,14:58:52,2,trotthet.jpg,285.jpg,159,5,241,644973,75,2,25761,Skin_test,-546662972,03-10-2017,10/03/2017 13:58,14:58:52,2,trotthet.jpg,130.jpg,27,5,765,645946,76,2,25861,Skin_test,-546662972,03-10-2017,10/03/2017 13:58,14:58:52,2,trotthet.jpg,221.jpg,108,5,235,646382,77,2,25961,Skin_test,-546662972,03-10-2017,10/03/2017 13:58,14:58:52,2,trotthet.jpg,288.jpg,162,5,384,646981,78,2,26061,Skin_test,-546662972,03-10-2017,10/03/2017 13:58,14:58:52,2,trotthet.jpg,239.jpg,121,5,749,647945,79,2,26161,Skin_test,-546662972,03-10-2017,10/03/2017 13:58,14:58:52,2,trotthet.jpg,152.jpg,45,5,582,648727,80,2,26261,Skin_test,-546662972,03-10-2017,10/03/2017 13:58,14:58:52,2,trotthet.jpg,160.jpg,51,5,517,649445,81,2,26361,Skin_test,-546662972,03-10-2017,10/03/2017 13:58,14:58:52,2,trotthet.jpg,155.jpg,48,5,687,650348,82,2,26461,Skin_test,-546662972,03-10-2017,10/03/2017 13:58,14:58:52,2,trotthet.jpg,235.jpg,118,1,1152,651712,83,2,26561,Skin_test,-546662972,03-10-2017,10/03/2017 13:58,14:58:52,2,trotthet.jpg,123.jpg,20,6,1178,653103,84,2,26661,Skin_test,-546662972,03-10-2017,10/03/2017 13:58,14:58:52,2,trotthet.jpg,202.jpg,89,6,244,653568,85,2,26761,Skin_test,-546662972,03-10-2017,10/03/2017 13:58,14:58:52,2,trotthet.jpg,281.jpg,157,6,202,653976,86,2,26861,Skin_test,-546662972,03-10-2017,10/03/2017 13:58,14:58:52,2,trotthet.jpg,134.jpg,31,1,1013,655203,87,2,26961,Skin_test,-546662972,03-10-2017,10/03/2017 13:58,14:58:52,2,trotthet.jpg,181.jpg,70,1,903,656309,88,2,27061,Skin_test,-546662972,03-10-2017,10/03/2017 13:58,14:58:52,2,trotthet.jpg,298.jpg,170,4,1674,658195,89,2,27161,Skin_test,-546662972,03-10-2017,10/03/2017 13:58,14:58:52,2,trotthet.jpg,145.jpg,40,5,1262,659665,90,2,27261,Skin_test,-546662972,03-10-2017,10/03/2017 13:58,14:58:52,2,trotthet.jpg,187.jpg,76,1,1130,660998,91,2,27361,Skin_test,-546662972,03-10-2017,10/03/2017 13:58,14:58:52,2,trotthet.jpg,188.jpg,77,6,1302,662519,92,2,27461,Skin_test,-546662972,03-10-2017,10/03/2017 13:58,14:58:52,2,trotthet.jpg,122.jpg,19,1,1210,663959,93,2,27561,Skin_test,-546662972,03-10-2017,10/03/2017 13:58,14:58:52,2,trotthet.jpg,236.jpg,119,5,1583,665764,94,2,27661,Skin_test,-546662972,03-10-2017,10/03/2017 13:58,14:58:52,2,trotthet.jpg,253.jpg,133,1,1096,667092,95,2,27761,Skin_test,-546662972,03-10-2017,10/03/2017 13:58,14:58:52,2,trotthet.jpg,102.jpg,2,1,1632,668927,96,2,27861,Skin_test,-546662972,03-10-2017,10/03/2017 13:58,14:58:52,2,trotthet.jpg,109.jpg,9,5,1471,670631,97,2,27961,Skin_test,-546662972,03-10-2017,10/03/2017 13:58,14:58:52,2,trotthet.jpg,189.jpg,78,5,1284,672126,98,2,28061,Skin_test,-546662972,03-10-2017,10/03/2017 13:58,14:58:52,2,trotthet.jpg,256.jpg,136,3,1457,673798,99,2,28161,Skin_test,-546662972,03-10-2017,10/03/2017 13:58,14:58:52,2,trotthet.jpg,176.jpg,65,5,1253,675259,100,2,28261,Skin_test,-546662972,03-10-2017,10/03/2017 13:58,14:58:52,2,trotthet.jpg,286.jpg,160,4,2202,677673,101,2,28361,Skin_test,-546662972,03-10-2017,10/03/2017 13:58,14:58:52,2,trotthet.jpg,232.jpg,116,5,1199,679085,102,2,28461,Skin_test,-546662972,03-10-2017,10/03/2017 13:58,14:58:52,2,trotthet.jpg,177.jpg,66,5,300,679601,103,2,28561,Skin_test,-546662972,03-10-2017,10/03/2017 13:58,14:58:52,2,trotthet.jpg,144.jpg,39,5,240,680057,104,2,28661,Skin_test,-546662972,03-10-2017,10/03/2017 13:58,14:58:52,2,trotthet.jpg,136.jpg,33,5,227,680494,105,2,28761,Skin_test,-546662972,03-10-2017,10/03/2017 13:58,14:58:52,2,trotthet.jpg,213.jpg,100,5,281,680981,106,2,28861,Skin_test,-546662972,03-10-2017,10/03/2017 13:58,14:58:52,2,trotthet.jpg,302.jpg,172,5,290,681473,107,2,28961,Skin_test,-546662972,03-10-2017,10/03/2017 13:58,14:58:52,2,trotthet.jpg,147.jpg,42,5,308,681990,108,2,29061,Skin_test,-546662972,03-10-2017,10/03/2017 13:58,14:58:52,2,trotthet.jpg,105.jpg,5,1,1448,683663,109,2,29161,Skin_test,-546662972,03-10-2017,10/03/2017 13:58,14:58:52,2,trotthet.jpg,294.jpg,168,1,763,684627,110,2,29261,Skin_test,-546662972,03-10-2017,10/03/2017 13:58,14:58:52,2,trotthet.jpg,278.jpg,154,6,2549,687395,111,2,29361,Skin_test,-546662972,03-10-2017,10/03/2017 13:58,14:58:52,2,trotthet.jpg,252.jpg,132,6,2526,690153,112,2,29461,Skin_test,-546662972,03-10-2017,10/03/2017 13:58,14:58:52,2,trotthet.jpg,193.jpg,82,6,2163,692521,113,2,29561,Skin_test,-546662972,03-10-2017,10/03/2017 13:58,14:58:52,2,trotthet.jpg,287.jpg,161,1,2093,694832,114,2,29661,Skin_test,-546662972,03-10-2017,10/03/2017 13:58,14:58:52,2,trotthet.jpg,243.jpg,125,5,1438,696475,115,2,29761,Skin_test,-546662972,03-10-2017,10/03/2017 13:58,14:58:52,2,trotthet.jpg,149.jpg,43,4,1007,697693,116,2,29861,Skin_test,-546662972,03-10-2017,10/03/2017 13:58,14:58:52,2,trotthet.jpg,120.jpg,17,4,653,698554,117,2,29961,Skin_test,-546662972,03-10-2017,10/03/2017 13:58,14:58:52,2,trotthet.jpg,137.jpg,34,4,284,699051,118,2,30061,Skin_test,-546662972,03-10-2017,10/03/2017 13:58,14:58:52,2,trotthet.jpg,433.jpg,179,4,333,699600,119,2,30161,Skin_test,-546662972,03-10-2017,10/03/2017 13:58,14:58:52,2,trotthet.jpg,209.jpg,96,4,77,699893,120,2,30261,Skin_test,-546662972,03-10-2017,10/03/2017 13:58,14:58:52,2,trotthet.jpg,254.jpg,134,4,169,700268,121,2,30361,Skin_test,-546662972,03-10-2017,10/03/2017 13:58,14:58:52,2,trotthet.jpg,198.jpg,87,4,183,700665,122,2,30461,Skin_test,-546662972,03-10-2017,10/03/2017 13:58,14:58:52,2,trotthet.jpg,205.jpg,92,4,133,700998,123,2,30561,Skin_test,-546662972,03-10-2017,10/03/2017 13:58,14:58:52,2,trotthet.jpg,204.jpg,91,4,191,701389,124,2,30661,Skin_test,-546662972,03-10-2017,10/03/2017 13:58,14:58:52,2,trotthet.jpg,306.jpg,174,4,429,702027,125,2,30761,Skin_test,-546662972,03-10-2017,10/03/2017 13:58,14:58:52,2,trotthet.jpg,272.jpg,150,4,253,702484,126,2,30861,Skin_test,-546662972,03-10-2017,10/03/2017 13:58,14:58:52,2,trotthet.jpg,241.jpg,123,4,172,702869,127,2,30961,Skin_test,-546662972,03-10-2017,10/03/2017 13:58,14:58:52,2,trotthet.jpg,289.jpg,163,4,155,703235,128,2,31061,Skin_test,-546662972,03-10-2017,10/03/2017 13:58,14:58:52,2,trotthet.jpg,182.jpg,71,4,300,703763,129,2,31161,Skin_test,-546662972,03-10-2017,10/03/2017 13:58,14:58:52,2,trotthet.jpg,143.jpg,38,4,138,704117,130,2,31261,Skin_test,-546662972,03-10-2017,10/03/2017 13:58,14:58:52,2,trotthet.jpg,151.jpg,44,4,94,704423,131,2,31361,Skin_test,-546662972,03-10-2017,10/03/2017 13:58,14:58:52,2,trotthet.jpg,174.jpg,63,4,78,704707,132,2,31461,Skin_test,-546662972,03-10-2017,10/03/2017 13:58,14:58:52,2,trotthet.jpg,271.jpg,149,4,98,705010,133,2,31561,Skin_test,-546662972,03-10-2017,10/03/2017 13:58,14:58:52,2,trotthet.jpg,183.jpg,72,4,67,705295,134,2,31661,Skin_test,-546662972,03-10-2017,10/03/2017 13:58,14:58:52,2,trotthet.jpg,112.jpg,12,4,84,705579,135,2,31761,Skin_test,-546662972,03-10-2017,10/03/2017 13:58,14:58:52,2,trotthet.jpg,274.jpg,151,4,79,705873,136,2,31861,Skin_test,-546662972,03-10-2017,10/03/2017 13:58,14:58:52,2,trotthet.jpg,108.jpg,8,4,62,706156,137,2,31961,Skin_test,-546662972,03-10-2017,10/03/2017 13:58,14:58:52,2,trotthet.jpg,242.jpg,124,4,54,706431,138,2,32061,Skin_test,-546662972,03-10-2017,10/03/2017 13:58,14:58:52,2,trotthet.jpg,171.jpg,60,4,82,706726,139,2,32161,Skin_test,-546662972,03-10-2017,10/03/2017 13:58,14:58:52,2,trotthet.jpg,138.jpg,35,4,92,707019,140,2,32261,Skin_test,-546662972,03-10-2017,10/03/2017 13:58,14:58:52,2,trotthet.jpg,101.jpg,1,4,80,707323,141,2,32361,Skin_test,-546662972,03-10-2017,10/03/2017 13:58,14:58:52,2,trotthet.jpg,192.jpg,81,4,92,707618,142,2,32461,Skin_test,-546662972,03-10-2017,10/03/2017 13:58,14:58:52,2,trotthet.jpg,217.jpg,104,4,96,707922,143,2,32561,Skin_test,-546662972,03-10-2017,10/03/2017 13:58,14:58:52,2,trotthet.jpg,131.jpg,28,4,121,708247,144,2,32661,Skin_test,-546662972,03-10-2017,10/03/2017 13:58,14:58:52,2,trotthet.jpg,218.jpg,105,4,92,708551,145,2,32761,Skin_test,-546662972,03-10-2017,10/03/2017 13:58,14:58:52,2,trotthet.jpg,279.jpg,155,4,118,708876,146,2,32861,Skin_test,-546662972,03-10-2017,10/03/2017 13:58,14:58:52,2,trotthet.jpg,207.jpg,94,4,81,709189,147,2,32961,Skin_test,-546662972,03-10-2017,10/03/2017 13:58,14:58:52,2,trotthet.jpg,269.jpg,147,4,134,709525,148,2,33061,Skin_test,-546662972,03-10-2017,10/03/2017 13:58,14:58:52,2,trotthet.jpg,128.jpg,25,4,88,709829,149,2,33161,Skin_test,-546662972,03-10-2017,10/03/2017 13:58,14:58:52,2,trotthet.jpg,175.jpg,64,4,92,710133,150,2,33261,Skin_test,-546662972,03-10-2017,10/03/2017 13:58,14:58:52,2,trotthet.jpg,163.jpg,54,4,88,710428,151,2,33361,Skin_test,-546662972,03-10-2017,10/03/2017 13:58,14:58:52,2,trotthet.jpg,292.jpg,166,4,113,710753,152,2,33461,Skin_test,-546662972,03-10-2017,10/03/2017 13:58,14:58:52,2,trotthet.jpg,154.jpg,47,4,103,711076,153,2,33561,Skin_test,-546662972,03-10-2017,10/03/2017 13:58,14:58:52,2,trotthet.jpg,127.jpg,24,1,1012,712318,154,2,33661,Skin_test,-546662972,03-10-2017,10/03/2017 13:58,14:58:52,2,trotthet.jpg,196.jpg,85,1,698,713220,155,2,33761,Skin_test,-546662972,03-10-2017,10/03/2017 13:58,14:58:52,2,trotthet.jpg,431.jpg,178,1,571,713992,156,2,33861,Skin_test,-546662972,03-10-2017,10/03/2017 13:58,14:58:52,2,trotthet.jpg,220.jpg,107,1,685,714905,157,2,33961,Skin_test,-546662972,03-10-2017,10/03/2017 13:58,14:58:52,2,trotthet.jpg,164.jpg,55,4,1453,716589,158,2,34061,Skin_test,-546662972,03-10-2017,10/03/2017 13:58,14:58:52,2,trotthet.jpg,255.jpg,135,7,2283,719084,159,2,34161,Skin_test,-546662972,03-10-2017,10/03/2017 13:58,14:58:52,2,trotthet.jpg,162.jpg,53,6,1043,720342,160,2,34261,Skin_test,-546662972,03-10-2017,10/03/2017 13:58,14:58:52,2,trotthet.jpg,107.jpg,7,5,1320,721868,161,2,34361,Skin_test,-546662972,03-10-2017,10/03/2017 13:58,14:58:52,2,trotthet.jpg,226.jpg,112,6,2373,724453,162,2,34461,Skin_test,-546662972,03-10-2017,10/03/2017 13:58,14:58:52,2,trotthet.jpg,133.jpg,30,5,1446,726107,163,2,34561,Skin_test,-546662972,03-10-2017,10/03/2017 13:58,14:58:52,2,trotthet.jpg,223.jpg,110,5,1434,727760,164,2,34661,Skin_test,-546662972,03-10-2017,10/03/2017 13:58,14:58:52,2,trotthet.jpg,301.jpg,171,5,922,728897,165,2,34761,Skin_test,-546662972,03-10-2017,10/03/2017 13:58,14:58:52,2,trotthet.jpg,208.jpg,95,2,1109,730216,166,2,34861,Skin_test,-546662972,03-10-2017,10/03/2017 13:58,14:58:52,2,trotthet.jpg,146.jpg,41,3,1424,731863,167,2,34961,Skin_test,-546662972,03-10-2017,10/03/2017 13:58,14:58:52,2,trotthet.jpg,260.jpg,140,3,920,732991,168,2,35061,Skin_test,-546662972,03-10-2017,10/03/2017 13:58,14:58:52,2,trotthet.jpg,129.jpg,26,4,4501,737721,169,2,35161,Skin_test,-546662972,03-10-2017,10/03/2017 13:58,14:58:52,2,trotthet.jpg,179.jpg,68,4,765,738714,170,2,35261,Skin_test,-546662972,03-10-2017,10/03/2017 13:58,14:58:52,2,trotthet.jpg,275.jpg,152,4,976,739891,171,2,35361,Skin_test,-546662972,03-10-2017,10/03/2017 13:58,14:58:52,2,trotthet.jpg,103.jpg,3,4,848,740945,172,2,35461,Skin_test,-546662972,03-10-2017,10/03/2017 13:58,14:58:52,2,trotthet.jpg,140.jpg,37,3,3186,744349,173,2,35561,Skin_test,-546662972,03-10-2017,10/03/2017 13:58,14:58:52,2,trotthet.jpg,125.jpg,22,5,1351,745911,174,2,35661,Skin_test,-546662972,03-10-2017,10/03/2017 13:58,14:58:52,2,trotthet.jpg,161.jpg,52,4,1398,747523,175,2,35761,Skin_test,-546662972,03-10-2017,10/03/2017 13:58,14:58:52,2,trotthet.jpg,119.jpg,16,5,1635,749359,176,2,35861,Skin_test,-546662972,03-10-2017,10/03/2017 13:58,14:58:52,2,trotthet.jpg,194.jpg,83,7,1937,751509,177,2,35961,Skin_test,-546662972,03-10-2017,10/03/2017 13:58,14:58:52,2,trotthet.jpg,215.jpg,102,4,1021,752741,178,2,36061,Skin_test,-546662972,03-10-2017,10/03/2017 13:58,14:58:52,2,trotthet.jpg,249.jpg,131,5,1897,754850,179,2,36161,Skin_test,-546662972,03-10-2017,10/03/2017 13:58,14:58:52,2,trotthet.jpg,197.jpg,86,5,2873,757924,180,2,36261,Skin_test,-546662972,03-10-2017,10/03/2017 13:58,14:58:52,2,trotthet.jpg,219.jpg,106,7,1599,759730,181,2,36361,Skin_test,-546662972,03-10-2017,10/03/2017 13:58,14:58:52,2,trotthet.jpg,173.jpg,62,7,652,760582,182,2,36461,Skin_test,-546662972,03-10-2017,10/03/2017 13:58,14:58:52,3,blek_hud.jpg,305.jpg,173,5,4923,795592,1,3,36561,Skin_test,-546662972,03-10-2017,10/03/2017 13:58,14:58:52,3,blek_hud.jpg,181.jpg,70,4,1650,797448,2,3,36661,Skin_test,-546662972,03-10-2017,10/03/2017 13:58,14:58:52,3,blek_hud.jpg,144.jpg,39,4,941,798604,3,3,36761,Skin_test,-546662972,03-10-2017,10/03/2017 13:58,14:58:52,3,blek_hud.jpg,212.jpg,99,6,797,799609,4,3,36861,Skin_test,-546662972,03-10-2017,10/03/2017 13:58,14:58:52,3,blek_hud.jpg,123.jpg,20,4,1766,801577,5,3,36961,Skin_test,-546662972,03-10-2017,10/03/2017 13:58,14:58:52,3,blek_hud.jpg,134.jpg,31,4,713,802506,6,3,37061,Skin_test,-546662972,03-10-2017,10/03/2017 13:58,14:58:52,3,blek_hud.jpg,187.jpg,76,1,1004,803713,7,3,37161,Skin_test,-546662972,03-10-2017,10/03/2017 13:58,14:58:52,3,blek_hud.jpg,306.jpg,174,1,887,804811,8,3,37261,Skin_test,-546662972,03-10-2017,10/03/2017 13:58,14:58:52,3,blek_hud.jpg,269.jpg,147,1,579,805602,9,3,37361,Skin_test,-546662972,03-10-2017,10/03/2017 13:58,14:58:52,3,blek_hud.jpg,197.jpg,86,1,414,806220,10,3,37461,Skin_test,-546662972,03-10-2017,10/03/2017 13:58,14:58:52,3,blek_hud.jpg,229.jpg,114,1,1026,807448,11,3,37561,Skin_test,-546662972,03-10-2017,10/03/2017 13:58,14:58:52,3,blek_hud.jpg,431.jpg,178,1,829,808483,12,3,37661,Skin_test,-546662972,03-10-2017,10/03/2017 13:58,14:58:52,3,blek_hud.jpg,230.jpg,115,5,1014,809701,13,3,37761,Skin_test,-546662972,03-10-2017,10/03/2017 13:58,14:58:52,3,blek_hud.jpg,244.jpg,126,5,610,810512,14,3,37861,Skin_test,-546662972,03-10-2017,10/03/2017 13:58,14:58:52,3,blek_hud.jpg,171.jpg,60,2,1053,811771,15,3,37961,Skin_test,-546662972,03-10-2017,10/03/2017 13:58,14:58:52,3,blek_hud.jpg,298.jpg,170,4,694,812678,16,3,38061,Skin_test,-546662972,03-10-2017,10/03/2017 13:58,14:58:52,3,blek_hud.jpg,129.jpg,26,2,1256,814139,17,3,38161,Skin_test,-546662972,03-10-2017,10/03/2017 13:58,14:58:52,3,blek_hud.jpg,126.jpg,23,4,957,815305,18,3,38261,Skin_test,-546662972,03-10-2017,10/03/2017 13:58,14:58:52,3,blek_hud.jpg,125.jpg,22,4,826,816340,19,3,38361,Skin_test,-546662972,03-10-2017,10/03/2017 13:58,14:58:52,3,blek_hud.jpg,124.jpg,21,4,445,816991,20,3,38461,Skin_test,-546662972,03-10-2017,10/03/2017 13:58,14:58:52,3,blek_hud.jpg,224.jpg,111,4,372,817568,21,3,38561,Skin_test,-546662972,03-10-2017,10/03/2017 13:58,14:58:52,3,blek_hud.jpg,177.jpg,66,4,267,818046,22,3,38661,Skin_test,-546662972,03-10-2017,10/03/2017 13:58,14:58:52,3,blek_hud.jpg,167.jpg,58,1,813,819091,23,3,38761,Skin_test,-546662972,03-10-2017,10/03/2017 13:58,14:58:52,3,blek_hud.jpg,163.jpg,54,4,466,819760,24,3,38861,Skin_test,-546662972,03-10-2017,10/03/2017 13:58,14:58:52,3,blek_hud.jpg,131.jpg,28,4,468,820428,25,3,38961,Skin_test,-546662972,03-10-2017,10/03/2017 13:58,14:58:52,3,blek_hud.jpg,268.jpg,146,3,1633,822276,26,3,39061,Skin_test,-546662972,03-10-2017,10/03/2017 13:58,14:58:52,3,blek_hud.jpg,192.jpg,81,6,2062,824553,27,3,39161,Skin_test,-546662972,03-10-2017,10/03/2017 13:58,14:58:52,3,blek_hud.jpg,271.jpg,149,5,1035,825791,28,3,39261,Skin_test,-546662972,03-10-2017,10/03/2017 13:58,14:58:52,3,blek_hud.jpg,102.jpg,2,5,688,826693,29,3,39361,Skin_test,-546662972,03-10-2017,10/03/2017 13:58,14:58:52,3,blek_hud.jpg,108.jpg,8,5,1171,828075,30,3,39461,Skin_test,-546662972,03-10-2017,10/03/2017 13:58,14:58:52,3,blek_hud.jpg,116.jpg,14,1,1127,829413,31,3,39561,Skin_test,-546662972,03-10-2017,10/03/2017 13:58,14:58:52,3,blek_hud.jpg,112.jpg,12,5,2414,832032,32,3,39661,Skin_test,-546662972,03-10-2017,10/03/2017 13:58,14:58:52,3,blek_hud.jpg,174.jpg,63,5,2079,834311,33,3,39761,Skin_test,-546662972,03-10-2017,10/03/2017 13:58,14:58:52,3,blek_hud.jpg,196.jpg,85,3,1562,836076,34,3,39861,Skin_test,-546662972,03-10-2017,10/03/2017 13:58,14:58:52,3,blek_hud.jpg,146.jpg,41,7,2588,838867,35,3,39961,Skin_test,-546662972,03-10-2017,10/03/2017 13:58,14:58:52,3,blek_hud.jpg,105.jpg,5,7,1966,841059,36,3,40061,Skin_test,-546662972,03-10-2017,10/03/2017 13:58,14:58:52,3,blek_hud.jpg,236.jpg,119,7,589,841880,37,3,40161,Skin_test,-546662972,03-10-2017,10/03/2017 13:58,14:58:52,3,blek_hud.jpg,208.jpg,95,3,1300,843407,38,3,40261,Skin_test,-546662972,03-10-2017,10/03/2017 13:58,14:58:52,3,blek_hud.jpg,140.jpg,37,3,347,843986,39,3,40361,Skin_test,-546662972,03-10-2017,10/03/2017 13:58,14:58:52,3,blek_hud.jpg,238.jpg,120,2,470,844675,40,3,40461,Skin_test,-546662972,03-10-2017,10/03/2017 13:58,14:58:52,3,blek_hud.jpg,101.jpg,1,4,1045,845933,41,3,40561,Skin_test,-546662972,03-10-2017,10/03/2017 13:58,14:58:52,3,blek_hud.jpg,179.jpg,68,7,1258,847395,42,3,40661,Skin_test,-546662972,03-10-2017,10/03/2017 13:58,14:58:52,3,blek_hud.jpg,232.jpg,116,7,677,848279,43,3,40761,Skin_test,-546662972,03-10-2017,10/03/2017 13:58,14:58:52,3,blek_hud.jpg,233.jpg,117,7,1924,850409,44,3,40861,Skin_test,-546662972,03-10-2017,10/03/2017 13:58,14:58:52,3,blek_hud.jpg,176.jpg,65,4,1438,852054,45,3,40961,Skin_test,-546662972,03-10-2017,10/03/2017 13:58,14:58:52,3,blek_hud.jpg,246.jpg,128,7,1783,854048,46,3,41061,Skin_test,-546662972,03-10-2017,10/03/2017 13:58,14:58:52,3,blek_hud.jpg,162.jpg,53,6,1753,856016,47,3,41161,Skin_test,-546662972,03-10-2017,10/03/2017 13:58,14:58:52,3,blek_hud.jpg,137.jpg,34,5,1016,857244,48,3,41261,Skin_test,-546662972,03-10-2017,10/03/2017 13:58,14:58:52,3,blek_hud.jpg,139.jpg,36,4,1642,859102,49,3,41361,Skin_test,-546662972,03-10-2017,10/03/2017 13:58,14:58:52,3,blek_hud.jpg,278.jpg,154,4,1288,860613,50,3,41461,Skin_test,-546662972,03-10-2017,10/03/2017 13:58,14:58:52,3,blek_hud.jpg,183.jpg,72,4,642,861466,51,3,41561,Skin_test,-546662972,03-10-2017,10/03/2017 13:58,14:58:52,3,blek_hud.jpg,164.jpg,55,4,2923,864596,52,3,41661,Skin_test,-546662972,03-10-2017,10/03/2017 13:58,14:58:52,3,blek_hud.jpg,161.jpg,52,4,1983,866787,53,3,41761,Skin_test,-546662972,03-10-2017,10/03/2017 13:58,14:58:52,3,blek_hud.jpg,110.jpg,10,4,69,867071,54,3,41861,Skin_test,-546662972,03-10-2017,10/03/2017 13:58,14:58:52,3,blek_hud.jpg,263.jpg,141,4,10,867295,55,3,41961,Skin_test,-546662972,03-10-2017,10/03/2017 13:58,14:58:52,3,blek_hud.jpg,577.jpg,182,4,190,867691,56,3,42061,Skin_test,-546662972,03-10-2017,10/03/2017 13:58,14:58:52,3,blek_hud.jpg,151.jpg,44,4,9,867910,57,3,42161,Skin_test,-546662972,03-10-2017,10/03/2017 13:58,14:58:52,3,blek_hud.jpg,285.jpg,159,4,9,868143,58,3,42261,Skin_test,-546662972,03-10-2017,10/03/2017 13:58,14:58:52,3,blek_hud.jpg,211.jpg,98,4,187,868554,59,3,42361,Skin_test,-546662972,03-10-2017,10/03/2017 13:58,14:58:52,3,blek_hud.jpg,235.jpg,118,4,242,869009,60,3,42461,Skin_test,-546662972,03-10-2017,10/03/2017 13:58,14:58:52,3,blek_hud.jpg,297.jpg,169,4,9,869242,61,3,42561,Skin_test,-546662972,03-10-2017,10/03/2017 13:58,14:58:52,3,blek_hud.jpg,185.jpg,74,4,21,869487,62,3,42661,Skin_test,-546662972,03-10-2017,10/03/2017 13:58,14:58:52,3,blek_hud.jpg,292.jpg,166,4,11,869710,63,3,42761,Skin_test,-546662972,03-10-2017,10/03/2017 13:58,14:58:52,3,blek_hud.jpg,288.jpg,162,4,27,869943,64,3,42861,Skin_test,-546662972,03-10-2017,10/03/2017 13:58,14:58:52,3,blek_hud.jpg,111.jpg,11,4,28,870177,65,3,42961,Skin_test,-546662972,03-10-2017,10/03/2017 13:58,14:58:52,3,blek_hud.jpg,245.jpg,127,4,18,870400,66,3,43061,Skin_test,-546662972,03-10-2017,10/03/2017 13:58,14:58:52,3,blek_hud.jpg,178.jpg,67,4,221,870836,67,3,43161,Skin_test,-546662972,03-10-2017,10/03/2017 13:58,14:58:52,3,blek_hud.jpg,249.jpg,131,4,22,871070,68,3,43261,Skin_test,-546662972,03-10-2017,10/03/2017 13:58,14:58:52,3,blek_hud.jpg,242.jpg,124,4,12,871293,69,3,43361,Skin_test,-546662972,03-10-2017,10/03/2017 13:58,14:58:52,3,blek_hud.jpg,107.jpg,7,4,28,871526,70,3,43461,Skin_test,-546662972,03-10-2017,10/03/2017 13:58,14:58:52,3,blek_hud.jpg,195.jpg,84,5,1808,873539,71,3,43561,Skin_test,-546662972,03-10-2017,10/03/2017 13:58,14:58:52,3,blek_hud.jpg,210.jpg,97,5,1832,875578,72,3,43661,Skin_test,-546662972,03-10-2017,10/03/2017 13:58,14:58:52,3,blek_hud.jpg,128.jpg,25,1,1520,877314,73,3,43761,Skin_test,-546662972,03-10-2017,10/03/2017 13:58,14:58:52,3,blek_hud.jpg,175.jpg,64,4,1553,879079,74,3,43861,Skin_test,-546662972,03-10-2017,10/03/2017 13:58,14:58:52,3,blek_hud.jpg,302.jpg,172,1,1027,880318,75,3,43961,Skin_test,-546662972,03-10-2017,10/03/2017 13:58,14:58:52,3,blek_hud.jpg,291.jpg,165,5,1804,882327,76,3,44061,Skin_test,-546662972,03-10-2017,10/03/2017 13:58,14:58:52,3,blek_hud.jpg,205.jpg,92,1,2282,884820,77,3,44161,Skin_test,-546662972,03-10-2017,10/03/2017 13:58,14:58:52,3,blek_hud.jpg,159.jpg,50,1,788,885824,78,3,44261,Skin_test,-546662972,03-10-2017,10/03/2017 13:58,14:58:52,3,blek_hud.jpg,290.jpg,164,1,488,886523,79,3,44361,Skin_test,-546662972,03-10-2017,10/03/2017 13:58,14:58:52,3,blek_hud.jpg,135.jpg,32,5,1402,888136,80,3,44461,Skin_test,-546662972,03-10-2017,10/03/2017 13:58,14:58:52,3,blek_hud.jpg,155.jpg,48,1,1028,889394,81,3,44561,Skin_test,-546662972,03-10-2017,10/03/2017 13:58,14:58:52,3,blek_hud.jpg,152.jpg,45,1,1221,890836,82,3,44661,Skin_test,-546662972,03-10-2017,10/03/2017 13:58,14:58:52,3,blek_hud.jpg,204.jpg,91,1,469,891516,83,3,44761,Skin_test,-546662972,03-10-2017,10/03/2017 13:58,14:58:52,3,blek_hud.jpg,270.jpg,148,1,567,892297,84,3,44861,Skin_test,-546662972,03-10-2017,10/03/2017 13:58,14:58:52,3,blek_hud.jpg,256.jpg,136,1,346,892875,85,3,44961,Skin_test,-546662972,03-10-2017,10/03/2017 13:58,14:58:52,3,blek_hud.jpg,127.jpg,24,1,552,893631,86,3,45061,Skin_test,-546662972,03-10-2017,10/03/2017 13:58,14:58:52,3,blek_hud.jpg,132.jpg,29,1,363,894208,87,3,45161,Skin_test,-546662972,03-10-2017,10/03/2017 13:58,14:58:52,3,blek_hud.jpg,451.jpg,180,1,2071,896482,88,3,45261,Skin_test,-546662972,03-10-2017,10/03/2017 13:58,14:58:52,3,blek_hud.jpg,119.jpg,16,1,947,897639,89,3,45361,Skin_test,-546662972,03-10-2017,10/03/2017 13:58,14:58:52,3,blek_hud.jpg,133.jpg,30,1,783,898624,90,3,45461,Skin_test,-546662972,03-10-2017,10/03/2017 13:58,14:58:52,3,blek_hud.jpg,281.jpg,157,5,1488,900328,91,3,45561,Skin_test,-546662972,03-10-2017,10/03/2017 13:58,14:58:52,3,blek_hud.jpg,160.jpg,51,5,976,901515,92,3,45661,Skin_test,-546662972,03-10-2017,10/03/2017 13:58,14:58:52,3,blek_hud.jpg,121.jpg,18,,0,0,93,3,45761,Skin_test,-546662972,03-10-2017,10/03/2017 13:58,14:58:52,3,blek_hud.jpg,106.jpg,6,1,1422,909354,94,3,45861,Skin_test,-546662972,03-10-2017,10/03/2017 13:58,14:58:52,3,blek_hud.jpg,223.jpg,110,7,1821,911385,95,3,45961,Skin_test,-546662972,03-10-2017,10/03/2017 13:58,14:58:52,3,blek_hud.jpg,103.jpg,3,7,734,912330,96,3,46061,Skin_test,-546662972,03-10-2017,10/03/2017 13:58,14:58:52,3,blek_hud.jpg,222.jpg,109,7,526,913071,97,3,46161,Skin_test,-546662972,03-10-2017,10/03/2017 13:58,14:58:52,3,blek_hud.jpg,293.jpg,167,5,1557,914851,98,3,46261,Skin_test,-546662972,03-10-2017,10/03/2017 13:58,14:58:52,3,blek_hud.jpg,252.jpg,132,6,1112,916171,99,3,46361,Skin_test,-546662972,03-10-2017,10/03/2017 13:58,14:58:52,3,blek_hud.jpg,156.jpg,49,5,720,917095,100,3,46461,Skin_test,-546662972,03-10-2017,10/03/2017 13:58,14:58:52,3,blek_hud.jpg,239.jpg,121,1,1076,918383,101,3,46561,Skin_test,-546662972,03-10-2017,10/03/2017 13:58,14:58:52,3,blek_hud.jpg,221.jpg,108,7,1999,920605,102,3,46661,Skin_test,-546662972,03-10-2017,10/03/2017 13:58,14:58:52,3,blek_hud.jpg,228.jpg,113,7,1459,922280,103,3,46761,Skin_test,-546662972,03-10-2017,10/03/2017 13:58,14:58:52,3,blek_hud.jpg,257.jpg,137,4,1011,923497,104,3,46861,Skin_test,-546662972,03-10-2017,10/03/2017 13:58,14:58:52,3,blek_hud.jpg,172.jpg,61,2,1439,925157,105,3,46961,Skin_test,-546662972,03-10-2017,10/03/2017 13:58,14:58:52,3,blek_hud.jpg,201.jpg,88,2,703,926070,106,3,47061,Skin_test,-546662972,03-10-2017,10/03/2017 13:58,14:58:52,3,blek_hud.jpg,267.jpg,145,7,1951,928234,107,3,47161,Skin_test,-546662972,03-10-2017,10/03/2017 13:58,14:58:52,3,blek_hud.jpg,220.jpg,107,7,60,928507,108,3,47261,Skin_test,-546662972,03-10-2017,10/03/2017 13:58,14:58:52,3,blek_hud.jpg,279.jpg,155,1,1376,930090,109,3,47361,Skin_test,-546662972,03-10-2017,10/03/2017 13:58,14:58:52,3,blek_hud.jpg,136.jpg,33,1,1376,931672,110,3,47461,Skin_test,-546662972,03-10-2017,10/03/2017 13:58,14:58:52,3,blek_hud.jpg,154.jpg,47,1,819,932697,111,3,47561,Skin_test,-546662972,03-10-2017,10/03/2017 13:58,14:58:52,3,blek_hud.jpg,274.jpg,151,1,609,933519,112,3,47661,Skin_test,-546662972,03-10-2017,10/03/2017 13:58,14:58:52,3,blek_hud.jpg,198.jpg,87,7,2478,936204,113,3,47761,Skin_test,-546662972,03-10-2017,10/03/2017 13:58,14:58:52,3,blek_hud.jpg,186.jpg,75,1,2264,938671,114,3,47861,Skin_test,-546662972,03-10-2017,10/03/2017 13:58,14:58:52,3,blek_hud.jpg,143.jpg,38,7,1316,940204,115,3,47961,Skin_test,-546662972,03-10-2017,10/03/2017 13:58,14:58:52,3,blek_hud.jpg,194.jpg,83,5,1235,941655,116,3,48061,Skin_test,-546662972,03-10-2017,10/03/2017 13:58,14:58:52,3,blek_hud.jpg,241.jpg,123,7,2489,944358,117,3,48161,Skin_test,-546662972,03-10-2017,10/03/2017 13:58,14:58:52,3,blek_hud.jpg,168.jpg,59,7,3998,948581,118,3,48261,Skin_test,-546662972,03-10-2017,10/03/2017 13:58,14:58:52,3,blek_hud.jpg,203.jpg,90,7,709,949505,119,3,48361,Skin_test,-546662972,03-10-2017,10/03/2017 13:58,14:58:52,3,blek_hud.jpg,286.jpg,160,1,1071,950783,120,3,48461,Skin_test,-546662972,03-10-2017,10/03/2017 13:58,14:58:52,3,blek_hud.jpg,145.jpg,40,7,2083,953077,121,3,48561,Skin_test,-546662972,03-10-2017,10/03/2017 13:58,14:58:52,3,blek_hud.jpg,417.jpg,175,5,1880,955172,122,3,48661,Skin_test,-546662972,03-10-2017,10/03/2017 13:58,14:58:52,3,blek_hud.jpg,255.jpg,135,6,1771,957161,123,3,48761,Skin_test,-546662972,03-10-2017,10/03/2017 13:58,14:58:52,3,blek_hud.jpg,191.jpg,80,4,1312,958684,124,3,48861,Skin_test,-546662972,03-10-2017,10/03/2017 13:58,14:58:52,3,blek_hud.jpg,193.jpg,82,2,2385,961272,125,3,48961,Skin_test,-546662972,03-10-2017,10/03/2017 13:58,14:58:52,3,blek_hud.jpg,215.jpg,102,7,1421,962906,126,3,49061,Skin_test,-546662972,03-10-2017,10/03/2017 13:58,14:58:52,3,blek_hud.jpg,206.jpg,93,6,1266,964383,127,3,49161,Skin_test,-546662972,03-10-2017,10/03/2017 13:58,14:58:52,3,blek_hud.jpg,149.jpg,43,7,1407,966006,128,3,49261,Skin_test,-546662972,03-10-2017,10/03/2017 13:58,14:58:52,3,blek_hud.jpg,280.jpg,156,7,1265,967479,129,3,49361,Skin_test,-546662972,03-10-2017,10/03/2017 13:58,14:58:52,3,blek_hud.jpg,226.jpg,112,7,724,968403,130,3,49461,Skin_test,-546662972,03-10-2017,10/03/2017 13:58,14:58:52,3,blek_hud.jpg,248.jpg,130,4,948,969560,131,3,49561,Skin_test,-546662972,03-10-2017,10/03/2017 13:58,14:58:52,3,blek_hud.jpg,253.jpg,133,5,1657,971418,132,3,49661,Skin_test,-546662972,03-10-2017,10/03/2017 13:58,14:58:52,3,blek_hud.jpg,573.jpg,181,4,1274,972900,133,3,49761,Skin_test,-546662972,03-10-2017,10/03/2017 13:58,14:58:52,3,blek_hud.jpg,260.jpg,140,2,1806,974914,134,3,49861,Skin_test,-546662972,03-10-2017,10/03/2017 13:58,14:58:52,3,blek_hud.jpg,217.jpg,104,7,1355,976478,135,3,49961,Skin_test,-546662972,03-10-2017,10/03/2017 13:58,14:58:52,3,blek_hud.jpg,289.jpg,163,1,1322,978010,136,3,50061,Skin_test,-546662972,03-10-2017,10/03/2017 13:58,14:58:52,3,blek_hud.jpg,418.jpg,176,7,1415,979635,137,3,50161,Skin_test,-546662972,03-10-2017,10/03/2017 13:58,14:58:52,3,blek_hud.jpg,190.jpg,79,4,1443,981278,138,3,50261,Skin_test,-546662972,03-10-2017,10/03/2017 13:58,14:58:52,3,blek_hud.jpg,276.jpg,153,1,1978,983462,139,3,50361,Skin_test,-546662972,03-10-2017,10/03/2017 13:58,14:58:52,3,blek_hud.jpg,214.jpg,101,7,1183,984848,140,3,50461,Skin_test,-546662972,03-10-2017,10/03/2017 13:58,14:58:52,3,blek_hud.jpg,207.jpg,94,3,1694,986758,141,3,50561,Skin_test,-546662972,03-10-2017,10/03/2017 13:58,14:58:52,3,blek_hud.jpg,266.jpg,144,4,1745,988707,142,3,50661,Skin_test,-546662972,03-10-2017,10/03/2017 13:58,14:58:52,3,blek_hud.jpg,243.jpg,125,5,1303,990230,143,3,50761,Skin_test,-546662972,03-10-2017,10/03/2017 13:58,14:58:52,3,blek_hud.jpg,218.jpg,105,1,1121,991580,144,3,50861,Skin_test,-546662972,03-10-2017,10/03/2017 13:58,14:58:52,3,blek_hud.jpg,147.jpg,42,1,753,992544,145,3,50961,Skin_test,-546662972,03-10-2017,10/03/2017 13:58,14:58:52,3,blek_hud.jpg,272.jpg,150,1,518,993275,146,3,51061,Skin_test,-546662972,03-10-2017,10/03/2017 13:58,14:58:52,3,blek_hud.jpg,122.jpg,19,6,1424,994914,147,3,51161,Skin_test,-546662972,03-10-2017,10/03/2017 13:58,14:58:52,3,blek_hud.jpg,138.jpg,35,7,2990,998112,148,3,51261,Skin_test,-546662972,03-10-2017,10/03/2017 13:58,14:58:52,3,blek_hud.jpg,182.jpg,71,1,990,999309,149,3,51361,Skin_test,-546662972,03-10-2017,10/03/2017 13:58,14:58:52,3,blek_hud.jpg,301.jpg,171,1,502,1000020,150,3,51461,Skin_test,-546662972,03-10-2017,10/03/2017 13:58,14:58:52,3,blek_hud.jpg,117.jpg,15,1,356,1000590,151,3,51561,Skin_test,-546662972,03-10-2017,10/03/2017 13:58,14:58:52,3,blek_hud.jpg,188.jpg,77,1,389,1001189,152,3,51661,Skin_test,-546662972,03-10-2017,10/03/2017 13:58,14:58:52,3,blek_hud.jpg,180.jpg,69,1,290,1001706,153,3,51761,Skin_test,-546662972,03-10-2017,10/03/2017 13:58,14:58:52,3,blek_hud.jpg,184.jpg,73,1,259,1002175,154,3,51861,Skin_test,-546662972,03-10-2017,10/03/2017 13:58,14:58:52,3,blek_hud.jpg,259.jpg,139,7,1223,1003605,155,3,51961,Skin_test,-546662972,03-10-2017,10/03/2017 13:58,14:58:52,3,blek_hud.jpg,153.jpg,46,1,980,1004794,156,3,52061,Skin_test,-546662972,03-10-2017,10/03/2017 13:58,14:58:52,3,blek_hud.jpg,120.jpg,17,1,291,1005287,157,3,52161,Skin_test,-546662972,03-10-2017,10/03/2017 13:58,14:58:52,3,blek_hud.jpg,109.jpg,9,1,156,1005652,158,3,52261,Skin_test,-546662972,03-10-2017,10/03/2017 13:58,14:58:52,3,blek_hud.jpg,130.jpg,27,1,166,1006028,159,3,52361,Skin_test,-546662972,03-10-2017,10/03/2017 13:58,14:58:52,3,blek_hud.jpg,294.jpg,168,1,17,1006262,160,3,52461,Skin_test,-546662972,03-10-2017,10/03/2017 13:58,14:58:52,3,blek_hud.jpg,173.jpg,62,4,2220,1008698,161,3,52561,Skin_test,-546662972,03-10-2017,10/03/2017 13:58,14:58:52,3,blek_hud.jpg,115.jpg,13,4,1021,1009947,162,3,52661,Skin_test,-546662972,03-10-2017,10/03/2017 13:58,14:58:52,3,blek_hud.jpg,213.jpg,100,7,1975,1012150,163,3,52761,Skin_test,-546662972,03-10-2017,10/03/2017 13:58,14:58:52,3,blek_hud.jpg,433.jpg,179,1,1157,1013530,164,3,52861,Skin_test,-546662972,03-10-2017,10/03/2017 13:58,14:58:52,3,blek_hud.jpg,287.jpg,161,4,1111,1014850,165,3,52961,Skin_test,-546662972,03-10-2017,10/03/2017 13:58,14:58:52,3,blek_hud.jpg,202.jpg,89,4,1030,1016084,166,3,53061,Skin_test,-546662972,03-10-2017,10/03/2017 13:58,14:58:52,3,blek_hud.jpg,189.jpg,78,4,2844,1019130,167,3,53161,Skin_test,-546662972,03-10-2017,10/03/2017 13:58,14:58:52,3,blek_hud.jpg,265.jpg,143,4,2140,1021474,168,3,53261,Skin_test,-546662972,03-10-2017,10/03/2017 13:58,14:58:52,3,blek_hud.jpg,209.jpg,96,4,1575,1023273,169,3,53361,Skin_test,-546662972,03-10-2017,10/03/2017 13:58,14:58:52,3,blek_hud.jpg,275.jpg,152,4,1072,1024552,170,3,53461,Skin_test,-546662972,03-10-2017,10/03/2017 13:58,14:58:52,3,blek_hud.jpg,282.jpg,158,4,1063,1025825,171,3,53561,Skin_test,-546662972,03-10-2017,10/03/2017 13:58,14:58:52,3,blek_hud.jpg,216.jpg,103,7,1624,1027652,172,3,53661,Skin_test,-546662972,03-10-2017,10/03/2017 13:58,14:58:52,3,blek_hud.jpg,219.jpg,106,7,893,1028769,173,3,53761,Skin_test,-546662972,03-10-2017,10/03/2017 13:58,14:58:52,3,blek_hud.jpg,247.jpg,129,7,738,1029713,174,3,53861,Skin_test,-546662972,03-10-2017,10/03/2017 13:58,14:58:52,3,blek_hud.jpg,258.jpg,138,3,1303,1031227,175,3,53961,Skin_test,-546662972,03-10-2017,10/03/2017 13:58,14:58:52,3,blek_hud.jpg,264.jpg,142,2,974,1032414,176,3,54061,Skin_test,-546662972,03-10-2017,10/03/2017 13:58,14:58:52,3,blek_hud.jpg,254.jpg,134,2,554,1033176,177,3,54161,Skin_test,-546662972,03-10-2017,10/03/2017 13:58,14:58:52,3,blek_hud.jpg,425.jpg,177,3,508,1033896,178,3,54261,Skin_test,-546662972,03-10-2017,10/03/2017 13:58,14:58:52,3,blek_hud.jpg,240.jpg,122,3,574,1034678,179,3,54361,Skin_test,-546662972,03-10-2017,10/03/2017 13:58,14:58:52,3,blek_hud.jpg,165.jpg,56,1,673,1035576,180,3,54461,Skin_test,-546662972,03-10-2017,10/03/2017 13:58,14:58:52,3,blek_hud.jpg,166.jpg,57,7,1414,1037200,181,3,54561,Skin_test,-546662972,03-10-2017,10/03/2017 13:58,14:58:52,3,blek_hud.jpg,104.jpg,4,1,1392,1038793,182,3,54655,Skin_test,112748463,03-10-2017,10/03/2017 08:26,09:26:49,1,,,,,,,,,55,Skin_test,112748463,03-10-2017,10/03/2017 08:26,09:26:49,1,,,,,,,,,55,Skin_test,112748463,03-10-2017,10/03/2017 08:26,09:26:49,1,,,,,,,,,55,Skin_test,112748463,03-10-2017,10/03/2017 08:26,09:26:49,1,,,,,,,,,55,Skin_test,112748463,03-10-2017,10/03/2017 08:26,09:26:49,1,,,,,,,,,55,Skin_test,112748463,03-10-2017,10/03/2017 08:26,09:26:49,2,trotthet.jpg,206.jpg,93,2,1618,214690,1,1,155,Skin_test,112748463,03-10-2017,10/03/2017 08:26,09:26:49,2,trotthet.jpg,254.jpg,134,3,1626,216530,2,1,255,Skin_test,112748463,03-10-2017,10/03/2017 08:26,09:26:49,2,trotthet.jpg,181.jpg,70,2,1403,218155,3,1,355,Skin_test,112748463,03-10-2017,10/03/2017 08:26,09:26:49,2,trotthet.jpg,244.jpg,126,6,1538,219905,4,1,455,Skin_test,112748463,03-10-2017,10/03/2017 08:26,09:26:49,2,trotthet.jpg,175.jpg,64,4,1743,221859,5,1,555,Skin_test,112748463,03-10-2017,10/03/2017 08:26,09:26:49,2,trotthet.jpg,143.jpg,38,3,1056,223120,6,1,655,Skin_test,112748463,03-10-2017,10/03/2017 08:26,09:26:49,2,trotthet.jpg,220.jpg,107,5,949,224295,7,1,755,Skin_test,112748463,03-10-2017,10/03/2017 08:26,09:26:49,2,trotthet.jpg,245.jpg,127,6,1275,225770,8,1,855,Skin_test,112748463,03-10-2017,10/03/2017 08:26,09:26:49,2,trotthet.jpg,247.jpg,129,3,1044,227021,9,1,955,Skin_test,112748463,03-10-2017,10/03/2017 08:26,09:26:49,2,trotthet.jpg,201.jpg,88,6,1174,228400,10,1,1055,Skin_test,112748463,03-10-2017,10/03/2017 08:26,09:26:49,2,trotthet.jpg,248.jpg,130,2,1156,229764,11,1,1155,Skin_test,112748463,03-10-2017,10/03/2017 08:26,09:26:49,2,trotthet.jpg,256.jpg,136,4,889,230863,12,1,1255,Skin_test,112748463,03-10-2017,10/03/2017 08:26,09:26:49,2,trotthet.jpg,101.jpg,1,5,1021,232094,13,1,1355,Skin_test,112748463,03-10-2017,10/03/2017 08:26,09:26:49,2,trotthet.jpg,270.jpg,148,4,1021,233326,14,1,1455,Skin_test,112748463,03-10-2017,10/03/2017 08:26,09:26:49,2,trotthet.jpg,218.jpg,105,3,1255,234792,15,1,1555,Skin_test,112748463,03-10-2017,10/03/2017 08:26,09:26:49,2,trotthet.jpg,257.jpg,137,2,944,235963,16,1,1655,Skin_test,112748463,03-10-2017,10/03/2017 08:26,09:26:49,2,trotthet.jpg,197.jpg,86,3,1036,237204,17,1,1755,Skin_test,112748463,03-10-2017,10/03/2017 08:26,09:26:49,2,trotthet.jpg,243.jpg,125,6,1390,238807,18,1,1855,Skin_test,112748463,03-10-2017,10/03/2017 08:26,09:26:49,2,trotthet.jpg,140.jpg,37,2,992,240008,19,1,1955,Skin_test,112748463,03-10-2017,10/03/2017 08:26,09:26:49,2,trotthet.jpg,268.jpg,146,5,801,241016,20,1,2055,Skin_test,112748463,03-10-2017,10/03/2017 08:26,09:26:49,2,trotthet.jpg,265.jpg,143,4,818,242065,21,1,2155,Skin_test,112748463,03-10-2017,10/03/2017 08:26,09:26:49,2,trotthet.jpg,433.jpg,179,3,880,243176,22,1,2255,Skin_test,112748463,03-10-2017,10/03/2017 08:26,09:26:49,2,trotthet.jpg,196.jpg,85,2,901,244296,23,1,2355,Skin_test,112748463,03-10-2017,10/03/2017 08:26,09:26:49,2,trotthet.jpg,163.jpg,54,5,1089,245600,24,1,2455,Skin_test,112748463,03-10-2017,10/03/2017 08:26,09:26:49,2,trotthet.jpg,130.jpg,27,3,950,246760,25,1,2555,Skin_test,112748463,03-10-2017,10/03/2017 08:26,09:26:49,2,trotthet.jpg,161.jpg,52,4,951,247926,26,1,2655,Skin_test,112748463,03-10-2017,10/03/2017 08:26,09:26:49,2,trotthet.jpg,215.jpg,102,2,947,249088,27,1,2755,Skin_test,112748463,03-10-2017,10/03/2017 08:26,09:26:49,2,trotthet.jpg,156.jpg,49,1,775,250065,28,1,2855,Skin_test,112748463,03-10-2017,10/03/2017 08:26,09:26:49,2,trotthet.jpg,240.jpg,122,3,1028,251317,29,1,2955,Skin_test,112748463,03-10-2017,10/03/2017 08:26,09:26:49,2,trotthet.jpg,185.jpg,74,3,966,252487,30,1,3055,Skin_test,112748463,03-10-2017,10/03/2017 08:26,09:26:49,2,trotthet.jpg,198.jpg,87,2,982,253669,31,1,3155,Skin_test,112748463,03-10-2017,10/03/2017 08:26,09:26:49,2,trotthet.jpg,451.jpg,180,1,852,254738,32,1,3255,Skin_test,112748463,03-10-2017,10/03/2017 08:26,09:26:49,2,trotthet.jpg,159.jpg,50,5,1078,256030,33,1,3355,Skin_test,112748463,03-10-2017,10/03/2017 08:26,09:26:49,2,trotthet.jpg,252.jpg,132,5,875,257109,34,1,3455,Skin_test,112748463,03-10-2017,10/03/2017 08:26,09:26:49,2,trotthet.jpg,417.jpg,175,3,754,258070,35,1,3555,Skin_test,112748463,03-10-2017,10/03/2017 08:26,09:26:49,2,trotthet.jpg,246.jpg,128,2,928,259210,36,1,3655,Skin_test,112748463,03-10-2017,10/03/2017 08:26,09:26:49,2,trotthet.jpg,233.jpg,117,2,936,260350,37,1,3755,Skin_test,112748463,03-10-2017,10/03/2017 08:26,09:26:49,2,trotthet.jpg,154.jpg,47,5,895,261458,38,1,3855,Skin_test,112748463,03-10-2017,10/03/2017 08:26,09:26:49,2,trotthet.jpg,115.jpg,13,3,794,262456,39,1,3955,Skin_test,112748463,03-10-2017,10/03/2017 08:26,09:26:49,2,trotthet.jpg,219.jpg,106,3,1040,263718,40,1,4055,Skin_test,112748463,03-10-2017,10/03/2017 08:26,09:26:49,2,trotthet.jpg,135.jpg,32,4,1065,264992,41,1,4155,Skin_test,112748463,03-10-2017,10/03/2017 08:26,09:26:49,2,trotthet.jpg,210.jpg,97,2,884,266093,42,1,4255,Skin_test,112748463,03-10-2017,10/03/2017 08:26,09:26:49,2,trotthet.jpg,298.jpg,170,2,935,267243,43,1,4355,Skin_test,112748463,03-10-2017,10/03/2017 08:26,09:26:49,2,trotthet.jpg,214.jpg,101,2,850,268307,44,1,4455,Skin_test,112748463,03-10-2017,10/03/2017 08:26,09:26:49,2,trotthet.jpg,236.jpg,119,3,802,269325,45,1,4555,Skin_test,112748463,03-10-2017,10/03/2017 08:26,09:26:49,2,trotthet.jpg,216.jpg,103,3,845,270384,46,1,4655,Skin_test,112748463,03-10-2017,10/03/2017 08:26,09:26:49,2,trotthet.jpg,242.jpg,124,5,835,271423,47,1,4755,Skin_test,112748463,03-10-2017,10/03/2017 08:26,09:26:49,2,trotthet.jpg,149.jpg,43,5,1099,272736,48,1,4855,Skin_test,112748463,03-10-2017,10/03/2017 08:26,09:26:49,2,trotthet.jpg,211.jpg,98,3,863,273815,49,1,4955,Skin_test,112748463,03-10-2017,10/03/2017 08:26,09:26:49,2,trotthet.jpg,194.jpg,83,5,918,274936,50,1,5055,Skin_test,112748463,03-10-2017,10/03/2017 08:26,09:26:49,2,trotthet.jpg,139.jpg,36,4,1357,276524,51,1,5155,Skin_test,112748463,03-10-2017,10/03/2017 08:26,09:26:49,2,trotthet.jpg,286.jpg,160,3,1074,277806,52,1,5255,Skin_test,112748463,03-10-2017,10/03/2017 08:26,09:26:49,2,trotthet.jpg,110.jpg,10,2,982,279013,53,1,5355,Skin_test,112748463,03-10-2017,10/03/2017 08:26,09:26:49,2,trotthet.jpg,180.jpg,69,2,1073,280286,54,1,5455,Skin_test,112748463,03-10-2017,10/03/2017 08:26,09:26:49,2,trotthet.jpg,290.jpg,164,3,920,281416,55,1,5555,Skin_test,112748463,03-10-2017,10/03/2017 08:26,09:26:49,2,trotthet.jpg,167.jpg,58,1,1539,283167,56,1,5655,Skin_test,112748463,03-10-2017,10/03/2017 08:26,09:26:49,2,trotthet.jpg,431.jpg,178,5,1250,284643,57,1,5755,Skin_test,112748463,03-10-2017,10/03/2017 08:26,09:26:49,2,trotthet.jpg,232.jpg,116,3,959,285834,58,1,5855,Skin_test,112748463,03-10-2017,10/03/2017 08:26,09:26:49,2,trotthet.jpg,123.jpg,20,2,943,286984,59,1,5955,Skin_test,112748463,03-10-2017,10/03/2017 08:26,09:26:49,2,trotthet.jpg,151.jpg,44,2,1001,288191,60,1,6055,Skin_test,112748463,03-10-2017,10/03/2017 08:26,09:26:49,2,trotthet.jpg,106.jpg,6,5,978,289383,61,1,6155,Skin_test,112748463,03-10-2017,10/03/2017 08:26,09:26:49,2,trotthet.jpg,188.jpg,77,3,874,290462,62,1,6255,Skin_test,112748463,03-10-2017,10/03/2017 08:26,09:26:49,2,trotthet.jpg,224.jpg,111,2,760,291430,63,1,6355,Skin_test,112748463,03-10-2017,10/03/2017 08:26,09:26:49,2,trotthet.jpg,288.jpg,162,5,1139,292775,64,1,6455,Skin_test,112748463,03-10-2017,10/03/2017 08:26,09:26:49,2,trotthet.jpg,164.jpg,55,3,1278,294263,65,1,6555,Skin_test,112748463,03-10-2017,10/03/2017 08:26,09:26:49,2,trotthet.jpg,264.jpg,142,2,1669,296136,66,1,6655,Skin_test,112748463,03-10-2017,10/03/2017 08:26,09:26:49,2,trotthet.jpg,213.jpg,100,3,1316,297664,67,1,6755,Skin_test,112748463,03-10-2017,10/03/2017 08:26,09:26:49,2,trotthet.jpg,125.jpg,22,3,1315,299195,68,1,6855,Skin_test,112748463,03-10-2017,10/03/2017 08:26,09:26:49,2,trotthet.jpg,186.jpg,75,4,1185,300581,69,1,6955,Skin_test,112748463,03-10-2017,10/03/2017 08:26,09:26:49,2,trotthet.jpg,212.jpg,99,2,1334,302128,70,1,7055,Skin_test,112748463,03-10-2017,10/03/2017 08:26,09:26:49,2,trotthet.jpg,122.jpg,19,4,1405,303748,71,1,7155,Skin_test,112748463,03-10-2017,10/03/2017 08:26,09:26:49,2,trotthet.jpg,128.jpg,25,3,2335,306293,72,1,7255,Skin_test,112748463,03-10-2017,10/03/2017 08:26,09:26:49,2,trotthet.jpg,103.jpg,3,2,940,307446,73,1,7355,Skin_test,112748463,03-10-2017,10/03/2017 08:26,09:26:49,2,trotthet.jpg,187.jpg,76,2,844,308499,74,1,7455,Skin_test,112748463,03-10-2017,10/03/2017 08:26,09:26:49,2,trotthet.jpg,120.jpg,17,3,1698,310402,75,1,7555,Skin_test,112748463,03-10-2017,10/03/2017 08:26,09:26:49,2,trotthet.jpg,152.jpg,45,2,615,311217,76,1,7655,Skin_test,112748463,03-10-2017,10/03/2017 08:26,09:26:49,2,trotthet.jpg,573.jpg,181,4,1450,312868,77,1,7755,Skin_test,112748463,03-10-2017,10/03/2017 08:26,09:26:49,2,trotthet.jpg,174.jpg,63,3,828,313928,78,1,7855,Skin_test,112748463,03-10-2017,10/03/2017 08:26,09:26:49,2,trotthet.jpg,111.jpg,11,2,1083,315232,79,1,7955,Skin_test,112748463,03-10-2017,10/03/2017 08:26,09:26:49,2,trotthet.jpg,112.jpg,12,1,2034,317482,80,1,8055,Skin_test,112748463,03-10-2017,10/03/2017 08:26,09:26:49,2,trotthet.jpg,301.jpg,171,2,1492,319188,81,1,8155,Skin_test,112748463,03-10-2017,10/03/2017 08:26,09:26:49,2,trotthet.jpg,108.jpg,8,3,1545,320940,82,1,8255,Skin_test,112748463,03-10-2017,10/03/2017 08:26,09:26:49,2,trotthet.jpg,127.jpg,24,2,1395,322538,83,1,8355,Skin_test,112748463,03-10-2017,10/03/2017 08:26,09:26:49,2,trotthet.jpg,166.jpg,57,1,950,323692,84,1,8455,Skin_test,112748463,03-10-2017,10/03/2017 08:26,09:26:49,2,trotthet.jpg,217.jpg,104,2,669,324576,85,1,8555,Skin_test,112748463,03-10-2017,10/03/2017 08:26,09:26:49,2,trotthet.jpg,306.jpg,174,2,886,325676,86,1,8655,Skin_test,112748463,03-10-2017,10/03/2017 08:26,09:26:49,2,trotthet.jpg,289.jpg,163,2,909,326798,87,1,8755,Skin_test,112748463,03-10-2017,10/03/2017 08:26,09:26:49,2,trotthet.jpg,229.jpg,114,2,845,327866,88,1,8855,Skin_test,112748463,03-10-2017,10/03/2017 08:26,09:26:49,2,trotthet.jpg,133.jpg,30,3,1002,329072,89,1,8955,Skin_test,112748463,03-10-2017,10/03/2017 08:26,09:26:49,2,trotthet.jpg,275.jpg,152,5,1415,330701,90,1,9055,Skin_test,112748463,03-10-2017,10/03/2017 08:26,09:26:49,2,trotthet.jpg,138.jpg,35,4,1391,332292,91,1,9155,Skin_test,112748463,03-10-2017,10/03/2017 08:26,09:26:49,2,trotthet.jpg,132.jpg,29,6,2318,334818,92,1,9255,Skin_test,112748463,03-10-2017,10/03/2017 08:26,09:26:49,2,trotthet.jpg,292.jpg,166,5,1722,336753,93,1,9355,Skin_test,112748463,03-10-2017,10/03/2017 08:26,09:26:49,2,trotthet.jpg,182.jpg,71,4,1646,338608,94,1,9455,Skin_test,112748463,03-10-2017,10/03/2017 08:26,09:26:49,2,trotthet.jpg,577.jpg,182,3,1280,340091,95,1,9555,Skin_test,112748463,03-10-2017,10/03/2017 08:26,09:26:49,2,trotthet.jpg,239.jpg,121,3,1376,341669,96,1,9655,Skin_test,112748463,03-10-2017,10/03/2017 08:26,09:26:49,2,trotthet.jpg,205.jpg,92,4,1404,343279,97,1,9755,Skin_test,112748463,03-10-2017,10/03/2017 08:26,09:26:49,2,trotthet.jpg,291.jpg,165,2,1266,344756,98,1,9855,Skin_test,112748463,03-10-2017,10/03/2017 08:26,09:26:49,2,trotthet.jpg,137.jpg,34,3,1303,346275,99,1,9955,Skin_test,112748463,03-10-2017,10/03/2017 08:26,09:26:49,2,trotthet.jpg,153.jpg,46,2,980,347467,100,1,10055,Skin_test,112748463,03-10-2017,10/03/2017 08:26,09:26:49,2,trotthet.jpg,146.jpg,41,3,1288,348974,101,1,10155,Skin_test,112748463,03-10-2017,10/03/2017 08:26,09:26:49,2,trotthet.jpg,235.jpg,118,2,1261,350446,102,1,10255,Skin_test,112748463,03-10-2017,10/03/2017 08:26,09:26:49,2,trotthet.jpg,102.jpg,2,4,1324,351974,103,1,10355,Skin_test,112748463,03-10-2017,10/03/2017 08:26,09:26:49,2,trotthet.jpg,269.jpg,147,4,567,352749,104,1,10455,Skin_test,112748463,03-10-2017,10/03/2017 08:26,09:26:49,2,trotthet.jpg,203.jpg,90,3,1577,354542,105,1,10555,Skin_test,112748463,03-10-2017,10/03/2017 08:26,09:26:49,2,trotthet.jpg,302.jpg,172,6,1489,356236,106,1,10655,Skin_test,112748463,03-10-2017,10/03/2017 08:26,09:26:49,2,trotthet.jpg,179.jpg,68,6,1003,357448,107,1,10755,Skin_test,112748463,03-10-2017,10/03/2017 08:26,09:26:49,2,trotthet.jpg,126.jpg,23,3,765,358426,108,1,10855,Skin_test,112748463,03-10-2017,10/03/2017 08:26,09:26:49,2,trotthet.jpg,221.jpg,108,6,1516,360142,109,1,10955,Skin_test,112748463,03-10-2017,10/03/2017 08:26,09:26:49,2,trotthet.jpg,171.jpg,60,3,2028,362386,110,1,11055,Skin_test,112748463,03-10-2017,10/03/2017 08:26,09:26:49,2,trotthet.jpg,305.jpg,173,4,1263,363853,111,1,11155,Skin_test,112748463,03-10-2017,10/03/2017 08:26,09:26:49,2,trotthet.jpg,116.jpg,14,2,1010,365065,112,1,11255,Skin_test,112748463,03-10-2017,10/03/2017 08:26,09:26:49,2,trotthet.jpg,222.jpg,109,3,1455,366726,113,1,11355,Skin_test,112748463,03-10-2017,10/03/2017 08:26,09:26:49,2,trotthet.jpg,260.jpg,140,2,1125,368061,114,1,11455,Skin_test,112748463,03-10-2017,10/03/2017 08:26,09:26:49,2,trotthet.jpg,121.jpg,18,2,1246,369514,115,1,11555,Skin_test,112748463,03-10-2017,10/03/2017 08:26,09:26:49,2,trotthet.jpg,165.jpg,56,3,958,370675,116,1,11655,Skin_test,112748463,03-10-2017,10/03/2017 08:26,09:26:49,2,trotthet.jpg,107.jpg,7,4,1332,372214,117,1,11755,Skin_test,112748463,03-10-2017,10/03/2017 08:26,09:26:49,2,trotthet.jpg,258.jpg,138,2,555,372969,118,1,11855,Skin_test,112748463,03-10-2017,10/03/2017 08:26,09:26:49,2,trotthet.jpg,249.jpg,131,3,1184,374364,119,1,11955,Skin_test,112748463,03-10-2017,10/03/2017 08:26,09:26:49,2,trotthet.jpg,189.jpg,78,2,1365,375944,120,1,12055,Skin_test,112748463,03-10-2017,10/03/2017 08:26,09:26:49,2,trotthet.jpg,131.jpg,28,2,779,376923,121,1,12155,Skin_test,112748463,03-10-2017,10/03/2017 08:26,09:26:49,2,trotthet.jpg,274.jpg,151,2,531,377658,122,1,12255,Skin_test,112748463,03-10-2017,10/03/2017 08:26,09:26:49,2,trotthet.jpg,208.jpg,95,3,843,378719,123,1,12355,Skin_test,112748463,03-10-2017,10/03/2017 08:26,09:26:49,2,trotthet.jpg,253.jpg,133,2,1104,380029,124,1,12455,Skin_test,112748463,03-10-2017,10/03/2017 08:26,09:26:49,2,trotthet.jpg,230.jpg,115,1,1368,381609,125,1,12555,Skin_test,112748463,03-10-2017,10/03/2017 08:26,09:26:49,2,trotthet.jpg,285.jpg,159,2,1599,383422,126,1,12655,Skin_test,112748463,03-10-2017,10/03/2017 08:26,09:26:49,2,trotthet.jpg,119.jpg,16,1,1356,384994,127,1,12755,Skin_test,112748463,03-10-2017,10/03/2017 08:26,09:26:49,2,trotthet.jpg,177.jpg,66,5,1299,386502,128,1,12855,Skin_test,112748463,03-10-2017,10/03/2017 08:26,09:26:49,2,trotthet.jpg,281.jpg,157,3,854,387572,129,1,12955,Skin_test,112748463,03-10-2017,10/03/2017 08:26,09:26:49,2,trotthet.jpg,191.jpg,80,3,1848,389632,130,1,13055,Skin_test,112748463,03-10-2017,10/03/2017 08:26,09:26:49,2,trotthet.jpg,145.jpg,40,4,1236,391085,131,1,13155,Skin_test,112748463,03-10-2017,10/03/2017 08:26,09:26:49,2,trotthet.jpg,147.jpg,42,3,1397,392695,132,1,13255,Skin_test,112748463,03-10-2017,10/03/2017 08:26,09:26:49,2,trotthet.jpg,278.jpg,154,4,1329,394225,133,1,13355,Skin_test,112748463,03-10-2017,10/03/2017 08:26,09:26:49,2,trotthet.jpg,195.jpg,84,2,1968,396396,134,1,13455,Skin_test,112748463,03-10-2017,10/03/2017 08:26,09:26:49,2,trotthet.jpg,272.jpg,150,2,1039,397649,135,1,13555,Skin_test,112748463,03-10-2017,10/03/2017 08:26,09:26:49,2,trotthet.jpg,238.jpg,120,2,1295,399170,136,1,13655,Skin_test,112748463,03-10-2017,10/03/2017 08:26,09:26:49,2,trotthet.jpg,183.jpg,72,2,1901,401275,137,1,13755,Skin_test,112748463,03-10-2017,10/03/2017 08:26,09:26:49,2,trotthet.jpg,184.jpg,73,3,1785,403274,138,1,13855,Skin_test,112748463,03-10-2017,10/03/2017 08:26,09:26:49,2,trotthet.jpg,124.jpg,21,3,735,404222,139,1,13955,Skin_test,112748463,03-10-2017,10/03/2017 08:26,09:26:49,2,trotthet.jpg,193.jpg,82,4,1234,405670,140,1,14055,Skin_test,112748463,03-10-2017,10/03/2017 08:26,09:26:49,2,trotthet.jpg,168.jpg,59,3,1018,406903,141,1,14155,Skin_test,112748463,03-10-2017,10/03/2017 08:26,09:26:49,2,trotthet.jpg,280.jpg,156,2,888,408005,142,1,14255,Skin_test,112748463,03-10-2017,10/03/2017 08:26,09:26:49,2,trotthet.jpg,173.jpg,62,4,1054,409270,143,1,14355,Skin_test,112748463,03-10-2017,10/03/2017 08:26,09:26:49,2,trotthet.jpg,192.jpg,81,3,765,410263,144,1,14455,Skin_test,112748463,03-10-2017,10/03/2017 08:26,09:26:49,2,trotthet.jpg,241.jpg,123,2,778,411242,145,1,14555,Skin_test,112748463,03-10-2017,10/03/2017 08:26,09:26:49,2,trotthet.jpg,223.jpg,110,5,1849,413312,146,1,14655,Skin_test,112748463,03-10-2017,10/03/2017 08:26,09:26:49,2,trotthet.jpg,109.jpg,9,3,834,414362,147,1,14755,Skin_test,112748463,03-10-2017,10/03/2017 08:26,09:26:49,2,trotthet.jpg,279.jpg,155,4,886,415463,148,1,14855,Skin_test,112748463,03-10-2017,10/03/2017 08:26,09:26:49,2,trotthet.jpg,418.jpg,176,3,695,416371,149,1,14955,Skin_test,112748463,03-10-2017,10/03/2017 08:26,09:26:49,2,trotthet.jpg,104.jpg,4,2,1019,417594,150,1,15055,Skin_test,112748463,03-10-2017,10/03/2017 08:26,09:26:49,2,trotthet.jpg,266.jpg,144,3,1066,418890,151,1,15155,Skin_test,112748463,03-10-2017,10/03/2017 08:26,09:26:49,2,trotthet.jpg,297.jpg,169,2,876,419982,152,1,15255,Skin_test,112748463,03-10-2017,10/03/2017 08:26,09:26:49,2,trotthet.jpg,202.jpg,89,3,634,420823,153,1,15355,Skin_test,112748463,03-10-2017,10/03/2017 08:26,09:26:49,2,trotthet.jpg,172.jpg,61,4,1366,422404,154,1,15455,Skin_test,112748463,03-10-2017,10/03/2017 08:26,09:26:49,2,trotthet.jpg,287.jpg,161,3,1385,424005,155,1,15555,Skin_test,112748463,03-10-2017,10/03/2017 08:26,09:26:49,2,trotthet.jpg,209.jpg,96,4,1658,425893,156,1,15655,Skin_test,112748463,03-10-2017,10/03/2017 08:26,09:26:49,2,trotthet.jpg,228.jpg,113,4,2404,428504,157,1,15755,Skin_test,112748463,03-10-2017,10/03/2017 08:26,09:26:49,2,trotthet.jpg,263.jpg,141,3,2307,431038,158,1,15855,Skin_test,112748463,03-10-2017,10/03/2017 08:26,09:26:49,2,trotthet.jpg,259.jpg,139,4,1985,433231,159,1,15955,Skin_test,112748463,03-10-2017,10/03/2017 08:26,09:26:49,2,trotthet.jpg,144.jpg,39,3,1064,434508,160,1,16055,Skin_test,112748463,03-10-2017,10/03/2017 08:26,09:26:49,2,trotthet.jpg,105.jpg,5,5,1603,436312,161,1,16155,Skin_test,112748463,03-10-2017,10/03/2017 08:26,09:26:49,2,trotthet.jpg,117.jpg,15,4,778,437302,162,1,16255,Skin_test,112748463,03-10-2017,10/03/2017 08:26,09:26:49,2,trotthet.jpg,282.jpg,158,4,1162,438669,163,1,16355,Skin_test,112748463,03-10-2017,10/03/2017 08:26,09:26:49,2,trotthet.jpg,178.jpg,67,4,1801,440673,164,1,16455,Skin_test,112748463,03-10-2017,10/03/2017 08:26,09:26:49,2,trotthet.jpg,204.jpg,91,3,1366,442253,165,1,16555,Skin_test,112748463,03-10-2017,10/03/2017 08:26,09:26:49,2,trotthet.jpg,207.jpg,94,2,1304,443773,166,1,16655,Skin_test,112748463,03-10-2017,10/03/2017 08:26,09:26:49,2,trotthet.jpg,136.jpg,33,5,3157,447141,167,1,16755,Skin_test,112748463,03-10-2017,10/03/2017 08:26,09:26:49,2,trotthet.jpg,155.jpg,48,2,2250,449598,168,1,16855,Skin_test,112748463,03-10-2017,10/03/2017 08:26,09:26:49,2,trotthet.jpg,176.jpg,65,3,1691,451520,169,1,16955,Skin_test,112748463,03-10-2017,10/03/2017 08:26,09:26:49,2,trotthet.jpg,226.jpg,112,4,1317,453061,170,1,17055,Skin_test,112748463,03-10-2017,10/03/2017 08:26,09:26:49,2,trotthet.jpg,294.jpg,168,3,1223,454499,171,1,17155,Skin_test,112748463,03-10-2017,10/03/2017 08:26,09:26:49,2,trotthet.jpg,255.jpg,135,5,1272,455980,172,1,17255,Skin_test,112748463,03-10-2017,10/03/2017 08:26,09:26:49,2,trotthet.jpg,425.jpg,177,5,1280,457470,173,1,17355,Skin_test,112748463,03-10-2017,10/03/2017 08:26,09:26:49,2,trotthet.jpg,190.jpg,79,2,869,458541,174,1,17455,Skin_test,112748463,03-10-2017,10/03/2017 08:26,09:26:49,2,trotthet.jpg,293.jpg,167,2,1020,459775,175,1,17555,Skin_test,112748463,03-10-2017,10/03/2017 08:26,09:26:49,2,trotthet.jpg,162.jpg,53,2,1010,460997,176,1,17655,Skin_test,112748463,03-10-2017,10/03/2017 08:26,09:26:49,2,trotthet.jpg,276.jpg,153,2,2163,463382,177,1,17755,Skin_test,112748463,03-10-2017,10/03/2017 08:26,09:26:49,2,trotthet.jpg,160.jpg,51,3,727,464311,178,1,17855,Skin_test,112748463,03-10-2017,10/03/2017 08:26,09:26:49,2,trotthet.jpg,267.jpg,145,4,958,465474,179,1,17955,Skin_test,112748463,03-10-2017,10/03/2017 08:26,09:26:49,2,trotthet.jpg,134.jpg,31,2,1282,466964,180,1,18055,Skin_test,112748463,03-10-2017,10/03/2017 08:26,09:26:49,2,trotthet.jpg,129.jpg,26,2,1667,468831,181,1,18155,Skin_test,112748463,03-10-2017,10/03/2017 08:26,09:26:49,2,trotthet.jpg,271.jpg,149,2,1911,470973,182,1,18255,Skin_test,112748463,03-10-2017,10/03/2017 08:26,09:26:49,2,halsa.jpg,205.jpg,92,5,2865,509844,1,2,18355,Skin_test,112748463,03-10-2017,10/03/2017 08:26,09:26:49,2,halsa.jpg,294.jpg,168,2,1407,511466,2,2,18455,Skin_test,112748463,03-10-2017,10/03/2017 08:26,09:26:49,2,halsa.jpg,232.jpg,116,5,1403,513094,3,2,18555,Skin_test,112748463,03-10-2017,10/03/2017 08:26,09:26:49,2,halsa.jpg,219.jpg,106,6,1360,514666,4,2,18655,Skin_test,112748463,03-10-2017,10/03/2017 08:26,09:26:49,2,halsa.jpg,134.jpg,31,4,1265,516137,5,2,18755,Skin_test,112748463,03-10-2017,10/03/2017 08:26,09:26:49,2,halsa.jpg,112.jpg,12,6,1887,518241,6,2,18855,Skin_test,112748463,03-10-2017,10/03/2017 08:26,09:26:49,2,halsa.jpg,128.jpg,25,4,1248,519700,7,2,18955,Skin_test,112748463,03-10-2017,10/03/2017 08:26,09:26:49,2,halsa.jpg,290.jpg,164,3,1649,521549,8,2,19055,Skin_test,112748463,03-10-2017,10/03/2017 08:26,09:26:49,2,halsa.jpg,212.jpg,99,2,1304,523086,9,2,19155,Skin_test,112748463,03-10-2017,10/03/2017 08:26,09:26:49,2,halsa.jpg,248.jpg,130,1,1048,524362,10,2,19255,Skin_test,112748463,03-10-2017,10/03/2017 08:26,09:26:49,2,halsa.jpg,206.jpg,93,4,1555,526118,11,2,19355,Skin_test,112748463,03-10-2017,10/03/2017 08:26,09:26:49,2,halsa.jpg,298.jpg,170,3,1545,527873,12,2,19455,Skin_test,112748463,03-10-2017,10/03/2017 08:26,09:26:49,2,halsa.jpg,573.jpg,181,5,929,529006,13,2,19555,Skin_test,112748463,03-10-2017,10/03/2017 08:26,09:26:49,2,halsa.jpg,260.jpg,140,6,1002,530211,14,2,19655,Skin_test,112748463,03-10-2017,10/03/2017 08:26,09:26:49,2,halsa.jpg,431.jpg,178,6,1107,531548,15,2,19755,Skin_test,112748463,03-10-2017,10/03/2017 08:26,09:26:49,2,halsa.jpg,119.jpg,16,5,1318,533075,16,2,19855,Skin_test,112748463,03-10-2017,10/03/2017 08:26,09:26:49,2,halsa.jpg,196.jpg,85,4,2269,535558,17,2,19955,Skin_test,112748463,03-10-2017,10/03/2017 08:26,09:26:49,2,halsa.jpg,289.jpg,163,2,1299,537069,18,2,20055,Skin_test,112748463,03-10-2017,10/03/2017 08:26,09:26:49,2,halsa.jpg,204.jpg,91,4,2022,539307,19,2,20155,Skin_test,112748463,03-10-2017,10/03/2017 08:26,09:26:49,2,halsa.jpg,139.jpg,36,5,1234,540767,20,2,20255,Skin_test,112748463,03-10-2017,10/03/2017 08:26,09:26:49,2,halsa.jpg,106.jpg,6,2,1233,542215,21,2,20355,Skin_test,112748463,03-10-2017,10/03/2017 08:26,09:26:49,2,halsa.jpg,208.jpg,95,1,504,542935,22,2,20455,Skin_test,112748463,03-10-2017,10/03/2017 08:26,09:26:49,2,halsa.jpg,229.jpg,114,4,1053,544200,23,2,20555,Skin_test,112748463,03-10-2017,10/03/2017 08:26,09:26:49,2,halsa.jpg,214.jpg,101,1,1576,545988,24,2,20655,Skin_test,112748463,03-10-2017,10/03/2017 08:26,09:26:49,2,halsa.jpg,240.jpg,122,1,826,547020,25,2,20755,Skin_test,112748463,03-10-2017,10/03/2017 08:26,09:26:49,2,halsa.jpg,257.jpg,137,3,1255,548481,26,2,20855,Skin_test,112748463,03-10-2017,10/03/2017 08:26,09:26:49,2,halsa.jpg,159.jpg,50,5,1994,550686,27,2,20955,Skin_test,112748463,03-10-2017,10/03/2017 08:26,09:26:49,2,halsa.jpg,149.jpg,43,4,1224,552114,28,2,21055,Skin_test,112748463,03-10-2017,10/03/2017 08:26,09:26:49,2,halsa.jpg,197.jpg,86,3,2126,554448,29,2,21155,Skin_test,112748463,03-10-2017,10/03/2017 08:26,09:26:49,2,halsa.jpg,281.jpg,157,2,1032,555685,30,2,21255,Skin_test,112748463,03-10-2017,10/03/2017 08:26,09:26:49,2,halsa.jpg,198.jpg,87,5,1178,557063,31,2,21355,Skin_test,112748463,03-10-2017,10/03/2017 08:26,09:26:49,2,halsa.jpg,185.jpg,74,5,1352,558636,32,2,21455,Skin_test,112748463,03-10-2017,10/03/2017 08:26,09:26:49,2,halsa.jpg,267.jpg,145,4,954,559820,33,2,21555,Skin_test,112748463,03-10-2017,10/03/2017 08:26,09:26:49,2,halsa.jpg,140.jpg,37,6,1310,561342,34,2,21655,Skin_test,112748463,03-10-2017,10/03/2017 08:26,09:26:49,2,halsa.jpg,175.jpg,64,1,2200,563747,35,2,21755,Skin_test,112748463,03-10-2017,10/03/2017 08:26,09:26:49,2,halsa.jpg,253.jpg,133,2,2647,566625,36,2,21855,Skin_test,112748463,03-10-2017,10/03/2017 08:26,09:26:49,2,halsa.jpg,278.jpg,154,6,1098,567924,37,2,21955,Skin_test,112748463,03-10-2017,10/03/2017 08:26,09:26:49,2,halsa.jpg,433.jpg,179,2,1825,569966,38,2,22055,Skin_test,112748463,03-10-2017,10/03/2017 08:26,09:26:49,2,halsa.jpg,297.jpg,169,3,1550,571723,39,2,22155,Skin_test,112748463,03-10-2017,10/03/2017 08:26,09:26:49,2,halsa.jpg,173.jpg,62,5,2019,573957,40,2,22255,Skin_test,112748463,03-10-2017,10/03/2017 08:26,09:26:49,2,halsa.jpg,174.jpg,63,3,1075,575244,41,2,22355,Skin_test,112748463,03-10-2017,10/03/2017 08:26,09:26:49,2,halsa.jpg,271.jpg,149,6,1043,576511,42,2,22455,Skin_test,112748463,03-10-2017,10/03/2017 08:26,09:26:49,2,halsa.jpg,154.jpg,47,3,1479,578196,43,2,22555,Skin_test,112748463,03-10-2017,10/03/2017 08:26,09:26:49,2,halsa.jpg,180.jpg,69,6,1522,579921,44,2,22655,Skin_test,112748463,03-10-2017,10/03/2017 08:26,09:26:49,2,halsa.jpg,146.jpg,41,3,1132,581263,45,2,22755,Skin_test,112748463,03-10-2017,10/03/2017 08:26,09:26:49,2,halsa.jpg,274.jpg,151,6,1587,583050,46,2,22855,Skin_test,112748463,03-10-2017,10/03/2017 08:26,09:26:49,2,halsa.jpg,244.jpg,126,6,713,583974,47,2,22955,Skin_test,112748463,03-10-2017,10/03/2017 08:26,09:26:49,2,halsa.jpg,245.jpg,127,3,747,584924,48,2,23055,Skin_test,112748463,03-10-2017,10/03/2017 08:26,09:26:49,2,halsa.jpg,179.jpg,68,6,1363,586489,49,2,23155,Skin_test,112748463,03-10-2017,10/03/2017 08:26,09:26:49,2,halsa.jpg,138.jpg,35,1,701,587409,50,2,23255,Skin_test,112748463,03-10-2017,10/03/2017 08:26,09:26:49,2,halsa.jpg,301.jpg,171,2,837,588461,51,2,23355,Skin_test,112748463,03-10-2017,10/03/2017 08:26,09:26:49,2,halsa.jpg,302.jpg,172,6,1065,589738,52,2,23455,Skin_test,112748463,03-10-2017,10/03/2017 08:26,09:26:49,2,halsa.jpg,151.jpg,44,2,1999,591954,53,2,23555,Skin_test,112748463,03-10-2017,10/03/2017 08:26,09:26:49,2,halsa.jpg,258.jpg,138,3,1504,593674,54,2,23655,Skin_test,112748463,03-10-2017,10/03/2017 08:26,09:26:49,2,halsa.jpg,202.jpg,89,1,1803,595688,55,2,23755,Skin_test,112748463,03-10-2017,10/03/2017 08:26,09:26:49,2,halsa.jpg,108.jpg,8,5,1892,597792,56,2,23855,Skin_test,112748463,03-10-2017,10/03/2017 08:26,09:26:49,2,halsa.jpg,279.jpg,155,3,1040,599038,57,2,23955,Skin_test,112748463,03-10-2017,10/03/2017 08:26,09:26:49,2,halsa.jpg,201.jpg,88,6,1814,601061,58,2,24055,Skin_test,112748463,03-10-2017,10/03/2017 08:26,09:26:49,2,halsa.jpg,111.jpg,11,2,871,602133,59,2,24155,Skin_test,112748463,03-10-2017,10/03/2017 08:26,09:26:49,2,halsa.jpg,153.jpg,46,2,1047,603391,60,2,24255,Skin_test,112748463,03-10-2017,10/03/2017 08:26,09:26:49,2,halsa.jpg,123.jpg,20,3,1009,604602,61,2,24355,Skin_test,112748463,03-10-2017,10/03/2017 08:26,09:26:49,2,halsa.jpg,288.jpg,162,5,1121,605930,62,2,24455,Skin_test,112748463,03-10-2017,10/03/2017 08:26,09:26:49,2,halsa.jpg,104.jpg,4,6,769,606910,63,2,24555,Skin_test,112748463,03-10-2017,10/03/2017 08:26,09:26:49,2,halsa.jpg,280.jpg,156,2,1206,608329,64,2,24655,Skin_test,112748463,03-10-2017,10/03/2017 08:26,09:26:49,2,halsa.jpg,269.jpg,147,2,1181,609720,65,2,24755,Skin_test,112748463,03-10-2017,10/03/2017 08:26,09:26:49,2,halsa.jpg,236.jpg,119,2,1209,611130,66,2,24855,Skin_test,112748463,03-10-2017,10/03/2017 08:26,09:26:49,2,halsa.jpg,120.jpg,17,2,661,611997,67,2,24955,Skin_test,112748463,03-10-2017,10/03/2017 08:26,09:26:49,2,halsa.jpg,223.jpg,110,2,869,613071,68,2,25055,Skin_test,112748463,03-10-2017,10/03/2017 08:26,09:26:49,2,halsa.jpg,246.jpg,128,2,669,613954,69,2,25155,Skin_test,112748463,03-10-2017,10/03/2017 08:26,09:26:49,2,halsa.jpg,193.jpg,82,1,451,614618,70,2,25255,Skin_test,112748463,03-10-2017,10/03/2017 08:26,09:26:49,2,halsa.jpg,105.jpg,5,1,961,615794,71,2,25355,Skin_test,112748463,03-10-2017,10/03/2017 08:26,09:26:49,2,halsa.jpg,249.jpg,131,1,1215,617214,72,2,25455,Skin_test,112748463,03-10-2017,10/03/2017 08:26,09:26:49,2,halsa.jpg,217.jpg,104,4,1474,618888,73,2,25555,Skin_test,112748463,03-10-2017,10/03/2017 08:26,09:26:49,2,halsa.jpg,136.jpg,33,2,1385,620481,74,2,25655,Skin_test,112748463,03-10-2017,10/03/2017 08:26,09:26:49,2,halsa.jpg,121.jpg,18,4,971,621666,75,2,25755,Skin_test,112748463,03-10-2017,10/03/2017 08:26,09:26:49,2,halsa.jpg,418.jpg,176,6,1047,622924,76,2,25855,Skin_test,112748463,03-10-2017,10/03/2017 08:26,09:26:49,2,halsa.jpg,218.jpg,105,2,1192,624318,77,2,25955,Skin_test,112748463,03-10-2017,10/03/2017 08:26,09:26:49,2,halsa.jpg,177.jpg,66,4,1264,625789,78,2,26055,Skin_test,112748463,03-10-2017,10/03/2017 08:26,09:26:49,2,halsa.jpg,155.jpg,48,3,1127,627117,79,2,26155,Skin_test,112748463,03-10-2017,10/03/2017 08:26,09:26:49,2,halsa.jpg,189.jpg,78,2,1779,629101,80,2,26255,Skin_test,112748463,03-10-2017,10/03/2017 08:26,09:26:49,2,halsa.jpg,216.jpg,103,3,1136,630440,81,2,26355,Skin_test,112748463,03-10-2017,10/03/2017 08:26,09:26:49,2,halsa.jpg,164.jpg,55,2,1180,631849,82,2,26455,Skin_test,112748463,03-10-2017,10/03/2017 08:26,09:26:49,2,halsa.jpg,168.jpg,59,1,1579,633630,83,2,26555,Skin_test,112748463,03-10-2017,10/03/2017 08:26,09:26:49,2,halsa.jpg,263.jpg,141,4,1528,635361,84,2,26655,Skin_test,112748463,03-10-2017,10/03/2017 08:26,09:26:49,2,halsa.jpg,182.jpg,71,1,1002,636567,85,2,26755,Skin_test,112748463,03-10-2017,10/03/2017 08:26,09:26:49,2,halsa.jpg,254.jpg,134,3,782,637579,86,2,26855,Skin_test,112748463,03-10-2017,10/03/2017 08:26,09:26:49,2,halsa.jpg,188.jpg,77,2,1394,639174,87,2,26955,Skin_test,112748463,03-10-2017,10/03/2017 08:26,09:26:49,2,halsa.jpg,126.jpg,23,3,1277,640655,88,2,27055,Skin_test,112748463,03-10-2017,10/03/2017 08:26,09:26:49,2,halsa.jpg,132.jpg,29,5,1298,642158,89,2,27155,Skin_test,112748463,03-10-2017,10/03/2017 08:26,09:26:49,2,halsa.jpg,238.jpg,120,3,1005,643364,90,2,27255,Skin_test,112748463,03-10-2017,10/03/2017 08:26,09:26:49,2,halsa.jpg,265.jpg,143,2,1310,644901,91,2,27355,Skin_test,112748463,03-10-2017,10/03/2017 08:26,09:26:49,2,halsa.jpg,224.jpg,111,1,1291,646414,92,2,27455,Skin_test,112748463,03-10-2017,10/03/2017 08:26,09:26:49,2,halsa.jpg,247.jpg,129,3,1090,647712,93,2,27555,Skin_test,112748463,03-10-2017,10/03/2017 08:26,09:26:49,2,halsa.jpg,228.jpg,113,5,1078,648999,94,2,27655,Skin_test,112748463,03-10-2017,10/03/2017 08:26,09:26:49,2,halsa.jpg,268.jpg,146,6,869,650072,95,2,27755,Skin_test,112748463,03-10-2017,10/03/2017 08:26,09:26:49,2,halsa.jpg,143.jpg,38,4,1750,652035,96,2,27855,Skin_test,112748463,03-10-2017,10/03/2017 08:26,09:26:49,2,halsa.jpg,252.jpg,132,3,1471,653721,97,2,27955,Skin_test,112748463,03-10-2017,10/03/2017 08:26,09:26:49,2,halsa.jpg,167.jpg,58,2,1244,655176,98,2,28055,Skin_test,112748463,03-10-2017,10/03/2017 08:26,09:26:49,2,halsa.jpg,191.jpg,80,5,1186,656567,99,2,28155,Skin_test,112748463,03-10-2017,10/03/2017 08:26,09:26:49,2,halsa.jpg,160.jpg,51,2,1324,658120,100,2,28255,Skin_test,112748463,03-10-2017,10/03/2017 08:26,09:26:49,2,halsa.jpg,190.jpg,79,3,855,659183,101,2,28355,Skin_test,112748463,03-10-2017,10/03/2017 08:26,09:26:49,2,halsa.jpg,133.jpg,30,5,1046,660440,102,2,28455,Skin_test,112748463,03-10-2017,10/03/2017 08:26,09:26:49,2,halsa.jpg,131.jpg,28,5,1044,661687,103,2,28555,Skin_test,112748463,03-10-2017,10/03/2017 08:26,09:26:49,2,halsa.jpg,192.jpg,81,2,296,662188,104,2,28655,Skin_test,112748463,03-10-2017,10/03/2017 08:26,09:26:49,2,halsa.jpg,116.jpg,14,6,992,663383,105,2,28755,Skin_test,112748463,03-10-2017,10/03/2017 08:26,09:26:49,2,halsa.jpg,110.jpg,10,3,1054,664644,106,2,28855,Skin_test,112748463,03-10-2017,10/03/2017 08:26,09:26:49,2,halsa.jpg,270.jpg,148,2,943,665799,107,2,28955,Skin_test,112748463,03-10-2017,10/03/2017 08:26,09:26:49,2,halsa.jpg,187.jpg,76,3,1276,667281,108,2,29055,Skin_test,112748463,03-10-2017,10/03/2017 08:26,09:26:49,2,halsa.jpg,451.jpg,180,2,1430,668917,109,2,29155,Skin_test,112748463,03-10-2017,10/03/2017 08:26,09:26:49,2,halsa.jpg,210.jpg,97,5,1581,670716,110,2,29255,Skin_test,112748463,03-10-2017,10/03/2017 08:26,09:26:49,2,halsa.jpg,107.jpg,7,4,697,671614,111,2,29355,Skin_test,112748463,03-10-2017,10/03/2017 08:26,09:26:49,2,halsa.jpg,577.jpg,182,5,1179,672995,112,2,29455,Skin_test,112748463,03-10-2017,10/03/2017 08:26,09:26:49,2,halsa.jpg,156.jpg,49,5,921,674119,113,2,29555,Skin_test,112748463,03-10-2017,10/03/2017 08:26,09:26:49,2,halsa.jpg,242.jpg,124,6,1408,675739,114,2,29655,Skin_test,112748463,03-10-2017,10/03/2017 08:26,09:26:49,2,halsa.jpg,115.jpg,13,3,948,676894,115,2,29755,Skin_test,112748463,03-10-2017,10/03/2017 08:26,09:26:49,2,halsa.jpg,215.jpg,102,2,974,678069,116,2,29855,Skin_test,112748463,03-10-2017,10/03/2017 08:26,09:26:49,2,halsa.jpg,305.jpg,173,1,927,679204,117,2,29955,Skin_test,112748463,03-10-2017,10/03/2017 08:26,09:26:49,2,halsa.jpg,171.jpg,60,1,749,680175,118,2,30055,Skin_test,112748463,03-10-2017,10/03/2017 08:26,09:26:49,2,halsa.jpg,276.jpg,153,3,1899,682291,119,2,30155,Skin_test,112748463,03-10-2017,10/03/2017 08:26,09:26:49,2,halsa.jpg,102.jpg,2,2,1615,684122,120,2,30255,Skin_test,112748463,03-10-2017,10/03/2017 08:26,09:26:49,2,halsa.jpg,239.jpg,121,5,1571,685893,121,2,30355,Skin_test,112748463,03-10-2017,10/03/2017 08:26,09:26:49,2,halsa.jpg,203.jpg,90,4,1164,687284,122,2,30455,Skin_test,112748463,03-10-2017,10/03/2017 08:26,09:26:49,2,halsa.jpg,425.jpg,177,3,1259,688745,123,2,30555,Skin_test,112748463,03-10-2017,10/03/2017 08:26,09:26:49,2,halsa.jpg,235.jpg,118,3,959,689910,124,2,30655,Skin_test,112748463,03-10-2017,10/03/2017 08:26,09:26:49,2,halsa.jpg,183.jpg,72,5,1522,691639,125,2,30755,Skin_test,112748463,03-10-2017,10/03/2017 08:26,09:26:49,2,halsa.jpg,181.jpg,70,2,2321,694186,126,2,30855,Skin_test,112748463,03-10-2017,10/03/2017 08:26,09:26:49,2,halsa.jpg,220.jpg,107,3,1205,695601,127,2,30955,Skin_test,112748463,03-10-2017,10/03/2017 08:26,09:26:49,2,halsa.jpg,127.jpg,24,5,2048,697860,128,2,31055,Skin_test,112748463,03-10-2017,10/03/2017 08:26,09:26:49,2,halsa.jpg,256.jpg,136,3,1212,699272,129,2,31155,Skin_test,112748463,03-10-2017,10/03/2017 08:26,09:26:49,2,halsa.jpg,161.jpg,52,2,820,700295,130,2,31255,Skin_test,112748463,03-10-2017,10/03/2017 08:26,09:26:49,2,halsa.jpg,264.jpg,142,1,1488,702012,131,2,31355,Skin_test,112748463,03-10-2017,10/03/2017 08:26,09:26:49,2,halsa.jpg,272.jpg,150,2,1180,703403,132,2,31455,Skin_test,112748463,03-10-2017,10/03/2017 08:26,09:26:49,2,halsa.jpg,145.jpg,40,2,922,704527,133,2,31555,Skin_test,112748463,03-10-2017,10/03/2017 08:26,09:26:49,2,halsa.jpg,275.jpg,152,6,909,705646,134,2,31655,Skin_test,112748463,03-10-2017,10/03/2017 08:26,09:26:49,2,halsa.jpg,122.jpg,19,3,1173,707026,135,2,31755,Skin_test,112748463,03-10-2017,10/03/2017 08:26,09:26:49,2,halsa.jpg,259.jpg,139,2,1663,708898,136,2,31855,Skin_test,112748463,03-10-2017,10/03/2017 08:26,09:26:49,2,halsa.jpg,130.jpg,27,3,1413,710513,137,2,31955,Skin_test,112748463,03-10-2017,10/03/2017 08:26,09:26:49,2,halsa.jpg,124.jpg,21,1,1055,711770,138,2,32055,Skin_test,112748463,03-10-2017,10/03/2017 08:26,09:26:49,2,halsa.jpg,243.jpg,125,5,893,712874,139,2,32155,Skin_test,112748463,03-10-2017,10/03/2017 08:26,09:26:49,2,halsa.jpg,166.jpg,57,3,1001,714081,140,2,32255,Skin_test,112748463,03-10-2017,10/03/2017 08:26,09:26:49,2,halsa.jpg,207.jpg,94,2,820,715115,141,2,32355,Skin_test,112748463,03-10-2017,10/03/2017 08:26,09:26:49,2,halsa.jpg,129.jpg,26,3,1038,716366,142,2,32455,Skin_test,112748463,03-10-2017,10/03/2017 08:26,09:26:49,2,halsa.jpg,101.jpg,1,6,633,717226,143,2,32555,Skin_test,112748463,03-10-2017,10/03/2017 08:26,09:26:49,2,halsa.jpg,117.jpg,15,3,1854,719280,144,2,32655,Skin_test,112748463,03-10-2017,10/03/2017 08:26,09:26:49,2,halsa.jpg,226.jpg,112,4,1681,721172,145,2,32755,Skin_test,112748463,03-10-2017,10/03/2017 08:26,09:26:49,2,halsa.jpg,152.jpg,45,3,1457,722829,146,2,32855,Skin_test,112748463,03-10-2017,10/03/2017 08:26,09:26:49,2,halsa.jpg,144.jpg,39,2,1166,724220,147,2,32955,Skin_test,112748463,03-10-2017,10/03/2017 08:26,09:26:49,2,halsa.jpg,222.jpg,109,1,1491,725911,148,2,33055,Skin_test,112748463,03-10-2017,10/03/2017 08:26,09:26:49,2,halsa.jpg,163.jpg,54,2,1530,727648,149,2,33155,Skin_test,112748463,03-10-2017,10/03/2017 08:26,09:26:49,2,halsa.jpg,211.jpg,98,6,1598,729448,150,2,33255,Skin_test,112748463,03-10-2017,10/03/2017 08:26,09:26:49,2,halsa.jpg,241.jpg,123,6,1160,730808,151,2,33355,Skin_test,112748463,03-10-2017,10/03/2017 08:26,09:26:49,2,halsa.jpg,184.jpg,73,3,1674,732688,152,2,33455,Skin_test,112748463,03-10-2017,10/03/2017 08:26,09:26:49,2,halsa.jpg,209.jpg,96,2,963,733875,153,2,33555,Skin_test,112748463,03-10-2017,10/03/2017 08:26,09:26:49,2,halsa.jpg,176.jpg,65,4,1949,736027,154,2,33655,Skin_test,112748463,03-10-2017,10/03/2017 08:26,09:26:49,2,halsa.jpg,125.jpg,22,1,1057,737316,155,2,33755,Skin_test,112748463,03-10-2017,10/03/2017 08:26,09:26:49,2,halsa.jpg,186.jpg,75,6,1070,738595,156,2,33855,Skin_test,112748463,03-10-2017,10/03/2017 08:26,09:26:49,2,halsa.jpg,147.jpg,42,2,381,739188,157,2,33955,Skin_test,112748463,03-10-2017,10/03/2017 08:26,09:26:49,2,halsa.jpg,287.jpg,161,1,1087,740477,158,2,34055,Skin_test,112748463,03-10-2017,10/03/2017 08:26,09:26:49,2,halsa.jpg,293.jpg,167,4,1511,742216,159,2,34155,Skin_test,112748463,03-10-2017,10/03/2017 08:26,09:26:49,2,halsa.jpg,135.jpg,32,6,859,743279,160,2,34255,Skin_test,112748463,03-10-2017,10/03/2017 08:26,09:26:49,2,halsa.jpg,230.jpg,115,1,602,744088,161,2,34355,Skin_test,112748463,03-10-2017,10/03/2017 08:26,09:26:49,2,halsa.jpg,137.jpg,34,4,2335,746637,162,2,34455,Skin_test,112748463,03-10-2017,10/03/2017 08:26,09:26:49,2,halsa.jpg,291.jpg,165,4,1935,748785,163,2,34555,Skin_test,112748463,03-10-2017,10/03/2017 08:26,09:26:49,2,halsa.jpg,213.jpg,100,6,871,749869,164,2,34655,Skin_test,112748463,03-10-2017,10/03/2017 08:26,09:26:49,2,halsa.jpg,221.jpg,108,5,1813,751893,165,2,34755,Skin_test,112748463,03-10-2017,10/03/2017 08:26,09:26:49,2,halsa.jpg,306.jpg,174,3,1781,753876,166,2,34855,Skin_test,112748463,03-10-2017,10/03/2017 08:26,09:26:49,2,halsa.jpg,195.jpg,84,2,1313,755390,167,2,34955,Skin_test,112748463,03-10-2017,10/03/2017 08:26,09:26:49,2,halsa.jpg,255.jpg,135,6,2113,757705,168,2,35055,Skin_test,112748463,03-10-2017,10/03/2017 08:26,09:26:49,2,halsa.jpg,178.jpg,67,3,954,758861,169,2,35155,Skin_test,112748463,03-10-2017,10/03/2017 08:26,09:26:49,2,halsa.jpg,266.jpg,144,5,1138,760210,170,2,35255,Skin_test,112748463,03-10-2017,10/03/2017 08:26,09:26:49,2,halsa.jpg,172.jpg,61,7,832,761253,171,2,35355,Skin_test,112748463,03-10-2017,10/03/2017 08:26,09:26:49,2,halsa.jpg,286.jpg,160,7,813,762266,172,2,35455,Skin_test,112748463,03-10-2017,10/03/2017 08:26,09:26:49,2,halsa.jpg,282.jpg,158,4,871,763340,173,2,35555,Skin_test,112748463,03-10-2017,10/03/2017 08:26,09:26:49,2,halsa.jpg,417.jpg,175,1,1499,765051,174,2,35655,Skin_test,112748463,03-10-2017,10/03/2017 08:26,09:26:49,2,halsa.jpg,233.jpg,117,3,1997,767264,175,2,35755,Skin_test,112748463,03-10-2017,10/03/2017 08:26,09:26:49,2,halsa.jpg,165.jpg,56,6,1079,768544,176,2,35855,Skin_test,112748463,03-10-2017,10/03/2017 08:26,09:26:49,2,halsa.jpg,194.jpg,83,5,1443,770190,177,2,35955,Skin_test,112748463,03-10-2017,10/03/2017 08:26,09:26:49,2,halsa.jpg,292.jpg,166,2,1349,771745,178,2,36055,Skin_test,112748463,03-10-2017,10/03/2017 08:26,09:26:49,2,halsa.jpg,162.jpg,53,4,1613,773574,179,2,36155,Skin_test,112748463,03-10-2017,10/03/2017 08:26,09:26:49,2,halsa.jpg,103.jpg,3,2,1344,775120,180,2,36255,Skin_test,112748463,03-10-2017,10/03/2017 08:26,09:26:49,2,halsa.jpg,285.jpg,159,2,1405,776730,181,2,36355,Skin_test,112748463,03-10-2017,10/03/2017 08:26,09:26:49,2,halsa.jpg,109.jpg,9,2,864,777804,182,2,36455,Skin_test,112748463,03-10-2017,10/03/2017 08:26,09:26:49,3,blek_hud.jpg,134.jpg,31,4,2532,810061,1,3,36555,Skin_test,112748463,03-10-2017,10/03/2017 08:26,09:26:49,3,blek_hud.jpg,101.jpg,1,2,1340,811617,2,3,36655,Skin_test,112748463,03-10-2017,10/03/2017 08:26,09:26:49,3,blek_hud.jpg,292.jpg,166,2,1467,813293,3,3,367